time,seconds_elapsed,z,y,x
1681147401607480300,0.013480224609375,0.19030980588793753,0.13567227983660995,-0.2857649704201147
1681147401617552400,0.023552490234375,0.3514999002754688,0.2851243709616363,-0.2960815443110652
1681147401627624200,0.033624267578125,0.31496377503871914,0.26452238550297913,-0.2483501991853118
1681147401637696300,0.0436962890625,0.1619692620664835,0.1647519515875727,-0.21711842743437737
1681147401647769300,0.053769287109375,0.024081717333197594,0.1322134446196258,-0.1668697474591434
1681147401657841400,0.06384130859375,0.06304302389025687,0.004575637352466583,-0.1471458600092679
1681147401667913500,0.07391357421875,0.2743283977895975,-0.0977569752011448,-0.0652001653915271
1681147401677986300,0.083986328125,0.4856529346555471,-0.1096445430021733,0.26876082679033275
1681147401688058400,0.094058349609375,0.5890449200689792,-0.14885522121042014,0.49341480082869527
1681147401698130400,0.10413037109375,0.31646599629521366,-0.27046828829534353,0.3219573602531105
1681147401708202200,0.1142021484375,-0.017483634242415426,-0.2951670415483415,0.043086825521849094
1681147401718275300,0.124275390625,-0.03669219258129597,-0.129746616114676,-0.15987477400526404
1681147401728347400,0.134347412109375,0.018332944548130035,0.049518794798105954,-0.24381248269043862
1681147401738419200,0.144419189453125,-0.03288929316699505,0.04300203331522643,-0.3350209860961884
1681147401748491300,0.1544912109375,0.02670037539899349,0.014408976037427782,-0.3688603830622509
1681147401758564400,0.164564453125,0.08509177409112453,-0.0030303076066076754,-0.19715141541101036
1681147401768636400,0.174636474609375,0.12566343845427036,-0.07724091446027159,-0.09219791630189865
1681147401778708500,0.18470849609375,0.04438566969335079,-0.07398615044802427,-0.0598047726213932
1681147401788781300,0.19478125,-0.018367431339621543,-0.08788666550666094,-0.03979892642498016
1681147401798853400,0.204853271484375,-0.022185528323054312,-0.12202274386435746,-0.0897813566794619
1681147401808925400,0.214925537109375,-0.006786883661150932,-0.1293544749919325,-0.06862045869641005
1681147401818998300,0.224998291015625,0.08837211093604565,-0.09268080444801598,-0.02583612325247377
1681147401829070300,0.2350703125,0.13685703264176846,0.01259162441715598,-0.10816537382770329
1681147401839142400,0.245142333984375,-0.01816810937523842,0.19828421883322297,-0.17794037285409867
1681147401849214200,0.255214111328125,-0.2550152100324631,0.29017602832801637,-0.3420675436068326
1681147401859287600,0.26528759765625,-0.5493851098537444,0.25937289378531275,-0.19887345343064516
1681147401869359600,0.275359619140625,-0.6805033065825701,-0.23329532645978032,-0.1582224767535925
1681147401879431400,0.285431396484375,-0.7905950818955898,-0.4478027311455458,-0.016979447579942644
1681147401889503500,0.29550341796875,-0.7636269954711198,-0.20651804989967493,0.6026024303762242
1681147401899576300,0.305576416015625,-0.5867541787832975,-0.20850020016022025,0.9233315274760127
1681147401909648400,0.3156484375,-0.7796259441137313,-0.2035487152326852,1.0798296646550296
1681147401919720400,0.325720458984375,-1.2003291444748638,-0.18564634412154554,0.8766234061844647
1681147401929793300,0.335793212890625,-1.508521233421564,-0.1095075822168961,0.4291284623464569
1681147401939865300,0.345865234375,-1.2195698515176772,0.018018910162895918,0.06466306284014135
1681147401949937400,0.3559375,-0.732749626648426,0.028584289449453352,-0.20415121117047963
1681147401960009200,0.36600927734375,-0.3570376606583595,0.12318155851066112,-0.2727670302243903
1681147401970082300,0.376082275390625,0.07172668108344078,0.20580946323890237,-0.4714340743627399
1681147401980154400,0.386154296875,0.30215806947946544,0.1920811264093965,-0.6795537507727741
1681147401990226200,0.39622607421875,0.20011749867498874,0.01694309762492776,-0.6361763813391328
1681147402000299500,0.406299560546875,0.0350479325056076,-0.06285539236366748,-0.10704553948491811
1681147402010371300,0.416371337890625,0.03777238903343677,-0.204045631904155,0.6559747953299433
1681147402020443400,0.426443359375,0.21142858176231383,-0.286968391393125,0.8586345988988876
1681147402030515500,0.436515380859375,0.39576983463466164,0.019473054493963717,0.5919225943971425
1681147402040588300,0.44658837890625,0.6148392865389585,0.21882197994925082,0.08172741222456097
1681147402050660400,0.456660400390625,0.6461304968595505,0.0683763477422297,-0.2309018554519862
1681147402060732400,0.466732421875,0.5613824216395616,-0.14754991076551377,-0.031264395378902556
1681147402070804500,0.476804443359375,0.5838187098532914,-0.21874891471303998,0.30511406974084676
1681147402080877300,0.486877197265625,1.1243974129170178,-0.3302534794334322,0.2899063445411622
1681147402090949400,0.496949462890625,1.1195943965494632,-0.39236747884526846,0.2622989372998476
1681147402101021200,0.507021240234375,0.8744459160149097,-0.2402222031135112,-0.1698254554595798
1681147402111094500,0.517094482421875,0.9005915801405906,-0.0945678237710148,-0.7862574180174619
1681147402121166600,0.52716650390625,0.5488771603316068,0.1912021516177803,-0.5639142051395029
1681147402131238400,0.53723828125,0.2826759548962116,0.2784741192921996,-0.04886924484819174
1681147402141310500,0.547310546875,0.10491466493606567,0.24422508207932114,0.516383734614402
1681147402151383300,0.55738330078125,0.03624035716056823,0.29664120575413105,0.7849021309509873
1681147402161455400,0.567455322265625,0.043809915632009505,0.4593377591818571,0.7073986930970102
1681147402171527400,0.57752734375,0.09860650470256804,0.4916753367502242,0.5232254902679473
1681147402181600300,0.587600341796875,0.1395773975163698,0.16308774470239876,0.07277158702649175
1681147402191672300,0.59767236328125,0.24377426957190035,-0.5055579508259892,-0.19097944877780973
1681147402201744400,0.607744384765625,0.4649281265348196,-0.9497711330469697,-0.04383519620373845
1681147402211816200,0.617816162109375,0.4872872578591108,-0.7495948168568313,0.21816804608516394
1681147402221889500,0.6278896484375,0.34879648653566836,-0.3787390587262809,0.7517039179652929
1681147402231961600,0.637961669921875,0.2113204452127218,-0.20565657423213124,1.4849452736534177
1681147402242033400,0.648033447265625,0.11182020654082298,-0.41315475774295624,1.7323014933653176
1681147402252105500,0.65810546875,0.37933132553100585,-0.5893119004420936,1.724028316669166
1681147402262178300,0.66817822265625,0.2995592851579189,-0.5217974302262067,1.7381600101351737
1681147402272250400,0.67825048828125,-0.15080021779835223,0.6199076758444308,1.4103095732554793
1681147402282322400,0.688322509765625,0.40160044048428534,1.454314719198644,0.7461290404424071
1681147402292395300,0.698395263671875,1.3444757496029138,1.5677553665481507,-0.1885908000756055
1681147402302467300,0.70846728515625,1.4102648573309182,0.8984986995145678,-1.2297830563656984
1681147402312539400,0.718539306640625,1.185090074288845,0.14825652466490863,-1.6451736834019421
1681147402322611500,0.728611572265625,0.7559697587162256,-0.47388519384190436,-1.8635294340789317
1681147402332684300,0.738684326171875,0.4409317493975162,-0.8968683218337595,-1.816004881837964
1681147402342756400,0.74875634765625,0.237581260150671,-0.779272673696652,-1.657052044983208
1681147402352828200,0.758828125,0.19138006546795366,-0.6812550747979432,-1.5740132578991353
1681147402362900500,0.768900390625,0.11315642358064651,-0.27979901122041045,-1.2954805402874945
1681147402372973600,0.7789736328125,-0.33249709364175795,0.15853220028989015,-0.5935538488607853
1681147402383045400,0.78904541015625,-0.4269815499782562,0.2630274707701057,0.21031009912639856
1681147402393117400,0.799117431640625,-0.4300333387643099,0.23797924649231134,0.4856831836633384
1681147402403190300,0.809190185546875,-0.4596972401440143,0.14332242926359176,-0.033620749246701595
1681147402413262300,0.819262451171875,-0.5446317778468132,0.16754180150181053,-0.6415837933406233
1681147402423334400,0.82933447265625,-0.9331272375643253,0.28300767106860875,-1.0627682744126767
1681147402433406500,0.839406494140625,-1.1667091989457608,0.35324535570330917,-1.1438206369198858
1681147402443479300,0.849479248046875,-0.9942319868683814,0.1763271655037999,-0.7021304703705012
1681147402453551400,0.85955126953125,-0.6886328370243311,-0.08659574891328811,-0.388181425332278
1681147402463623200,0.869623046875,-0.41577860344052314,-0.4087668980475515,-0.2705925722621381
1681147402473696500,0.879696533203125,-0.19250176297426222,-0.5968365968585014,-0.27952757386788724
1681147402483768600,0.8897685546875,-0.17394377749860285,-0.45106297505050896,-0.329830943172425
1681147402493840400,0.89984033203125,-0.28263913001716134,0.09047602441273629,-0.29722938090562817
1681147402503912400,0.909912353515625,-0.14085691593289373,0.7282544341210275,-0.011114610667154192
1681147402513985300,0.9199853515625,0.3992214363932609,0.7591287342038006,0.5183795846067368
1681147402524057300,0.930057373046875,0.7682096470862626,0.5375445229995995,0.7759714401941746
1681147402534129400,0.94012939453125,0.8019371446430683,0.22069237693101165,0.5895635371156036
1681147402544201700,0.95020166015625,0.6387292806923389,-0.2842502915408462,0.5594901050869375
1681147402554273500,0.9602734375,0.4949292970448732,-0.4350261786155402,0.36008272744268177
1681147402564345600,0.970345703125,0.4869862290859222,-0.42135099674537774,0.0662518298689276
1681147402574417700,0.980417724609375,0.532410594177246,-0.20391835226267574,-0.17210085304565725
1681147402584490500,0.990490478515625,0.5679828428179026,0.053651364558190105,-0.21506087385006248
1681147402594562600,1.0005625,0.603249386510253,0.08528232822716236,-0.10121464137434959
1681147402604634600,1.010634521484375,0.3477753267943859,-0.05470328476391732,0.27327508934438227
1681147402614706400,1.02070654296875,0.03704933545589447,-0.17453224491104483,0.7095750142227858
1681147402624779500,1.030779541015625,-0.03174889096021652,-0.29334596360102294,0.8370407528586685
1681147402634851300,1.040851318359375,-0.09997954662144183,-0.14922493130564687,0.6988958723634481
1681147402644923400,1.05092333984375,-0.23913784194290635,0.11897519286200403,0.27936105819456275
1681147402654996700,1.060996826171875,-0.258799404746294,0.23411387630105018,-0.07638079049959778
1681147402665068500,1.071068603515625,-0.17817513145804403,0.11333915973640978,-0.13310403678379953
1681147402675140600,1.081140625,-0.24976503441929815,-0.10060951508805155,0.1458294436484575
1681147402685212700,1.091212646484375,-0.2969885578870773,-0.26882863132953644,0.5631845026254654
1681147402695285500,1.101285400390625,-0.3266477830916643,-0.1335710697736591,0.7061487661011516
1681147402705357600,1.111357666015625,-0.28534254375696183,0.15833236686885355,0.5626360749624669
1681147402715429600,1.1214296875,-0.13108546350300312,0.25410766673348845,0.24248693317510187
1681147402725501400,1.13150146484375,-0.050479310393333435,0.16468407398313284,0.06487937247194349
1681147402735574500,1.141574462890625,0.013186813831329344,-0.04985723297223448,0.07445559459067881
1681147402745646600,1.151646484375,0.06074760642945766,-0.2730328780863434,0.019241949151828884
1681147402755718400,1.161718505859375,-0.09629705871641635,-0.4426909410897642,0.1402766318269074
1681147402765791700,1.171791748046875,-0.1728834547907114,-0.2584866124700755,0.0667966773353517
1681147402775863600,1.181863525390625,-0.15601766018569468,0.1320082774363458,-0.17235387795865534
1681147402785935600,1.191935546875,-0.1161024139046669,0.7117378182798624,-0.23537556679993865
1681147402796007700,1.202007568359375,0.1460223358720541,1.0238756491776555,-0.2818473951175809
1681147402806080500,1.21208056640625,0.4394283590972423,0.7853018708582967,-0.14487170453220605
1681147402816152600,1.222152587890625,0.8594032451838255,0.1599426516097039,0.12276581731662153
1681147402826224600,1.232224609375,1.0895020406246185,-0.474630897642672,0.14247311895787715
1681147402836297500,1.24229736328125,1.2067805125713347,-0.7295595253702253,-0.001057546228915453
1681147402846369500,1.25236962890625,1.0522621510326862,-0.36711978647261856,-0.1383032859273255
1681147402856441600,1.262441650390625,0.5951677868634462,0.27309059962294996,-0.4541847603328526
1681147402866513400,1.272513427734375,0.40756723993420596,0.8982393179260194,-0.9034560296609997
1681147402876586500,1.28258642578125,0.7118880404055118,1.1727966291006653,-0.9790414319992065
1681147402886658300,1.292658203125,1.2473188591867685,1.0760543108347802,-1.079667167569697
1681147402896730600,1.302730712890625,2.2156460049480198,0.5910973225541413,-1.3702614943750202
1681147402906802700,1.312802734375,3.123174106353521,0.09113594962619244,-1.623946478717029
1681147402916875500,1.32287548828125,4.0128929948240515,0.01622190721090883,-1.502098214636743
1681147402926947600,1.332947509765625,5.6364604110956185,0.5272949316639453,-1.3271199795238673
1681147402937019600,1.34301953125,6.909202465352416,1.0221776861533522,-1.3740041880346834
1681147402947092500,1.353092529296875,7.635722257700562,0.3986749814916402,-0.7562446301348507
1681147402957164500,1.36316455078125,8.26397339899838,0.783648477628082,-1.2308427945517002
1681147402967236600,1.373236572265625,9.622635494863987,0.1576326211016625,-1.5783410579703747
1681147402977308400,1.383308349609375,9.730935710585117,-0.13045333961192518,-1.5946069869861006
1681147402987381500,1.393381591796875,9.65668389493823,-0.2187174235962331,-1.6236935268692672
1681147402997453600,1.40345361328125,9.648860069444774,-0.3950092620583251,-1.6450548793278634
1681147403007525400,1.413525390625,9.604071079647541,-0.5454840838272125,-1.6732983925156295
1681147403017597400,1.423597412109375,9.589835049024224,-0.6902191563677043,-1.6967422503367064
1681147403027670500,1.43367041015625,9.550553424471616,-0.8417528030071407,-1.713173745177686
1681147403037742600,1.44374267578125,9.523728545910119,-0.9850605461582541,-1.7286403405092656
1681147403047814700,1.453814697265625,9.500037289199232,-1.1338397795230148,-1.7529793936043976
1681147403057887500,1.463887451171875,9.442084866446256,-1.293417178016901,-1.7639583221279083
1681147403067959600,1.47395947265625,9.395555754983425,-1.4381462592080234,-1.78505327873528
1681147403078031600,1.484031494140625,9.357017057752609,-1.5939803795203566,-1.809059592744708
1681147403088103400,1.494103515625,9.293227014887332,-1.7387923166893422,-1.8334106285385787
1681147403098176500,1.504176513671875,9.207970990145206,-1.8917936977937817,-1.837337008202076
1681147403108248600,1.51424853515625,9.044991089731454,-2.0412240885436534,-1.8376231316670775
1681147403118320400,1.5243203125,7.399591780880093,-1.7267174096226692,-1.6159743307940662
1681147403128392400,1.534392333984375,-45.66229823365211,12.601792759948967,19.05676501839161
1681147403138465500,1.544465576171875,-159.85235291461944,22.022991490232943,9.71888111565411
1681147403148537600,1.55453759765625,-57.517683428478236,2.1836703194946048,-19.61267806870937
1681147403158609700,1.564609619140625,26.70403450602293,-0.08508797469884156,4.206494535733759
1681147403168682500,1.5746826171875,11.00679969625473,-1.847847150170058,0.21957155620753763
1681147403178754600,1.584754638671875,10.158416442257165,-1.0791241467341781,-0.5259384024884551
1681147403188826600,1.59482666015625,9.761718971383571,-1.1713060252167284,-0.6610452304620296
1681147403198898400,1.6048984375,9.669380879426003,-1.2262741714619099,-0.7397518335606902
1681147403208971500,1.614971435546875,9.634132455912232,-1.316393126065284,-0.8514287591733037
1681147403219043600,1.625043701171875,9.472359593200682,-1.3681138148218392,-0.7356814423166215
1681147403229115400,1.635115478515625,9.209889390987158,-1.3117479306079447,-0.40479777522087096
1681147403239187500,1.6451875,7.955112617009878,-1.021725996863097,0.09760448805317282
1681147403249260500,1.655260498046875,1.7849544945359228,0.10077318121716379,2.282229770185053
1681147403259332600,1.66533251953125,-8.606075356331466,2.027422211553901,4.059105295422673
1681147403269404700,1.67540478515625,-19.802657035207748,2.0413973992839454,-0.1308571346398443
1681147403279477500,1.6854775390625,-15.426670148426293,-0.22417817322015762,-6.1338791868686675
1681147403289549600,1.695549560546875,4.023915324097872,-0.7649363245040178,0.7294475894283503
1681147403299621600,1.70562158203125,4.416911017844081,-0.9733091719575225,3.028765637862682
1681147403309693700,1.715693603515625,3.3330408456265923,-0.019174948330223558,1.1332302693225442
1681147403319766500,1.7257666015625,1.8390701156049967,0.8261990408487617,0.12153167241178452
1681147403329838600,1.735838623046875,-0.6667348934710026,0.36048707045987244,-1.6552857659630476
1681147403339910400,1.745910400390625,-1.7705524596959352,-0.054611880153417586,-1.692976614192873
1681147403349983500,1.7559833984375,-0.8045785990625619,-0.11818185052722692,0.3648063949637115
1681147403360055600,1.7660556640625,0.5195142877250909,-0.0952874432824552,1.294073596099019
1681147403370127400,1.77612744140625,0.772787622526288,-0.03577420095354318,0.40790739514138546
1681147403380199400,1.786199462890625,-0.071107087880373,-0.19043299387618898,-0.5433978521376848
1681147403390272500,1.7962724609375,-0.41032267612218853,-0.00619549363926053,-0.38790059909690167
1681147403400344600,1.806344482421875,0.14695114115476607,0.08139642670452595,0.03922294403477572
1681147403410416600,1.816416748046875,0.37492519952654835,-0.055069853053987025,0.10671484622582793
1681147403420488700,1.82648876953125,0.05415887568891048,-0.05678805514872074,0.08923270982075482
1681147403430561500,1.8365615234375,-0.19263854109644887,0.013555939404666423,0.09932601461615413
1681147403440633600,1.846633544921875,-0.013902268624305724,-0.04419175455644726,-0.02274685200024396
1681147403450705400,1.856705322265625,0.2311404134482145,-0.006897212167829275,-0.11340385900307447
1681147403460778500,1.866778564453125,0.06374620372354983,-0.015879560046643017,-0.056945620330609376
1681147403470850600,1.8768505859375,-0.037953590819239616,-0.06949336907342075,-0.027031182822515255
1681147403480922400,1.88692236328125,0.013299042034149168,-0.13122048805952072,-0.010056370318494736
1681147403490994400,1.896994384765625,0.06292787307798862,-0.07622881480827927,0.06097256972517352
1681147403501067500,1.907067626953125,0.11009119079113006,0.06953954630270599,0.08518778181150555
1681147403511139600,1.9171396484375,0.138135382014513,0.05994666531011462,0.05656125608894508
1681147403521211600,1.927211669921875,0.06771452283263206,-0.05347250085994601,-0.029371859630569815
1681147403531283700,1.93728369140625,0.03173193982541561,-0.1159830253086984,-0.060920629475382154
1681147403541356500,1.9473564453125,0.0020768062740564347,-0.07685790649205446,-0.0752710756920278
1681147403551429000,1.95742919921875,-0.029444705671072005,-0.04686754963696003,-0.05576791832074523
1681147403561501000,1.9675009765625,0.0380675725877285,-0.025494799001514912,-0.010231215428747236
1681147403571574000,1.977573974609375,0.07347966223061084,-0.03950403513163328,0.04881722240000963
1681147403581646000,1.98764599609375,0.1535550694644451,0.008940846824645996,0.0715100791906938
1681147403591718000,1.9977177734375,0.1258060617953539,0.05062909412756562,0.046721711425483224
1681147403601790000,2.0077900390625,0.013390227448940277,-0.027125176682323216,-0.04659450484924018
1681147403611862800,2.01786279296875,0.025046178451180456,-0.11367840162813662,-0.08959127746745943
1681147403621934800,2.027934814453125,0.011754735201597213,-0.12172025378644466,-0.058617864391766486
1681147403632007000,2.0380068359375,0.030469372543692586,-0.03713292208611965,-0.0007742723081260919
1681147403642079000,2.048078857421875,0.06896189254522324,0.03688274671733379,0.052144649789668616
1681147403652151800,2.05815185546875,0.0971662427663803,0.006029197161644697,0.050184199904277915
1681147403662224000,2.068223876953125,0.12720190006792545,-0.02355506311058998,0.042115532804280514
1681147403672296000,2.0782958984375,0.07937515000998974,-0.0483174561843276,-0.014237966852076352
1681147403682369000,2.088369140625,0.03795475986301899,-0.03408069490864873,-0.03681684187427163
1681147403692441000,2.098441162109375,0.003966565543413162,-0.059341685154289,-0.0640375878855586
1681147403702513000,2.108512939453125,0.026080197674036024,-0.08376987783759832,-0.03193049460481852
1681147403712585000,2.1185849609375,0.09086918844878673,-0.03260653070285916,0.0017426058836281298
1681147403722657800,2.12865771484375,0.08077917158901692,0.014376315876841544,0.029723851406015453
1681147403732729900,2.138729736328125,0.06672492727339267,0.011794628820568323,0.002945255105081014
1681147403742802000,2.148802001953125,0.07454524563550949,-0.04129807894155383,-0.006914784357137977
1681147403752874000,2.1588740234375,0.06469955892562866,-0.06606178718954324,-0.0014213015073910355
1681147403762946800,2.16894677734375,0.0445201097279787,-0.04467953807339072,-0.01593403474681545
1681147403773019000,2.179018798828125,0.04624737191200256,-0.01659457644820213,-0.007084880227036774
1681147403783091000,2.189091064453125,0.053715223574638364,-0.03879121068716049,-0.023199819932132958
1681147403793164000,2.1991640625,0.05567161833941936,-0.05230681808143854,-0.0034759690148755905
1681147403803236000,2.209236083984375,0.049618309649825096,-0.02360913138538599,-0.012675320645235478
1681147403813308000,2.219307861328125,0.053933250239491456,-0.0012001695699989795,-0.0053013943437486884
1681147403823380000,2.2293798828125,0.052501171609759326,-0.017039835997670887,0.007264986034296452
1681147403833453000,2.239453125,0.07008475909531116,-0.04115793981850147,0.0032845746286213396
1681147403843524900,2.24952490234375,0.07850128978490829,-0.04208119214326143,0.004776311023719609
1681147403853597000,2.259596923828125,0.06279518660902976,-0.02109612565115094,0.004868702014908194
1681147403863669000,2.2696689453125,0.05308978515267372,-0.03292451061084866,0.0000370806073769927
1681147403873741800,2.279741943359375,0.049852702927589414,-0.04027823437452316,-0.01896897742934525
1681147403883814000,2.28981396484375,0.04927461077868938,-0.04221519378647208,0.004967372049833648
1681147403893886000,2.299885986328125,0.07187222703397274,-0.021856588629633186,0.009333421772229485
1681147403903959000,2.309958984375,0.0479535913079977,-0.005675999809801578,0.001387253107316792
1681147403914031000,2.320031005859375,0.062205404022336,-0.024106121122092008,-0.003757562435232103
1681147403924103000,2.33010302734375,0.06477145511806011,-0.06117430740892887,-0.003511953643709421
1681147403934175000,2.340175048828125,0.0488946715503931,-0.054245238798111675,-0.007139501057681627
1681147403944248000,2.350248046875,0.03961597107350826,-0.011001871007680892,0.00401562884952873
1681147403954320000,2.36031982421875,0.057466100540757174,0.0062220893852412695,0.012397928475961089
1681147403964392000,2.370391845703125,0.0773936208039522,-0.0049565994940698145,-0.005765979648195207
1681147403974464800,2.38046484375,0.07546703665554523,-0.023521599232405422,-0.0028914836578071115
1681147403984536800,2.390536865234375,0.06542144345939159,-0.0390869787633419,-0.0034998293810756874
1681147403994609000,2.40060888671875,0.05300619852244853,-0.051766573724895716,-0.03976224767640233
1681147404004681000,2.410680908203125,0.050206338670849796,-0.037965135126560925,-0.016174195611663163
1681147404014753800,2.42075390625,0.06639759501516819,-0.026805735469609498,0.007022847841493785
1681147404024825900,2.430825927734375,0.08030220172703266,-0.01208645137399435,0.01868464406263083
1681147404034898000,2.44089794921875,0.07505085707008838,0.01025426751077175,0.017080606399476526
1681147404044970000,2.450969970703125,0.06638064388036727,-0.013179945699125527,0.013527768189529887
1681147404055043000,2.46104296875,0.057715106865763664,-0.03880377790778875,-0.036208244989253575
1681147404065115000,2.471114990234375,0.03318915289640426,-0.0401860260464251,-0.040351966331014406
1681147404075187000,2.48118701171875,0.021709142982959746,-0.03480520979091525,-0.01817169413839001
1681147404085259000,2.491259033203125,0.03788169462680816,-0.026647330037504434,-0.001953983611986041
1681147404095331800,2.501331787109375,0.07127426114082336,-0.00028378537744283675,0.011583173460396938
1681147404105404000,2.51140380859375,0.07188859364688396,0.0014960837766528129,0.017174349097535013
1681147404115476000,2.52147607421875,0.07577800230085849,-0.01691197183430195,0.014083580007962882
1681147404125548800,2.531548828125,0.05991115560531616,-0.027419921845197676,-0.014323243115888907
1681147404135620900,2.541620849609375,0.0355664034217596,-0.04308540074974298,-0.02760737070869654
1681147404145693000,2.55169287109375,0.024081717333197594,-0.04834741293117404,-0.023211218108981847
1681147404155764700,2.5617646484375,0.05027531225383281,-0.027498101647943255,-0.007734868568368256
1681147404165838000,2.571838134765625,0.06480711095333098,-0.0016295008979737757,-0.006895275939069688
1681147404175910000,2.581909912109375,0.06405950745642185,-0.012990122215449809,-0.004619951418228447
1681147404185982000,2.59198193359375,0.07495499548017978,-0.014381868834793567,0.008127813408710062
1681147404196054000,2.602053955078125,0.06298924787640571,-0.03139130969420075,-0.004775032382085919
1681147404206126800,2.612126953125,0.0585106411576271,-0.021746113992482424,-0.015388598191924393
1681147404216199000,2.622198974609375,0.05422200405299663,-0.01733472729101777,-0.006956395009160041
1681147404226271000,2.63227099609375,0.05368482843637466,-0.01987389037981629,-0.01603160880319774
1681147404236343800,2.64234375,0.057279638057947155,-0.016249124011397362,-0.014943448240309952
1681147404246416000,2.652415771484375,0.06219020645320415,-0.014057166925072669,-0.022705250481376425
1681147404256488000,2.662488037109375,0.07100830368101596,-0.01563011533021927,0.008299991637840867
1681147404266559700,2.672559814453125,0.08897826013565063,-0.020906448297947643,0.0023748667720239606
1681147404276633000,2.682633056640625,0.07537760480642318,-0.014043138399720191,0.011273344892822206
1681147404286705000,2.692704833984375,0.0738864894658327,-0.024028525841236114,-0.010089724598824977
1681147404296777000,2.70277685546875,0.05265840799808502,-0.025528993532061575,-0.007956119236769154
1681147404306849000,2.71284912109375,0.06374328111410141,-0.029482115072011945,-0.01869501932617277
1681147404316921900,2.722921875,0.06030103170573711,-0.04055997392535209,-0.020753120899759232
1681147404326994000,2.732993896484375,0.04502221403121948,-0.03065072045996785,-0.014197232982888818
1681147404337066000,2.74306591796875,0.07390928581953048,-0.006653320409357548,-0.006067054087156429
1681147404347138800,2.753138916015625,0.06630056438148021,-0.007530833896249532,0.013530759297637269
1681147404357211000,2.7632109375,0.06376373938024044,-0.016142887157946824,0.023805055816285312
1681147404367283000,2.773282958984375,0.04369359577596187,-0.019271394442021847,-0.007199811843596398
1681147404377354800,2.783354736328125,0.05716916342079639,-0.03192234783098102,-0.0010662044594064355
1681147404387427800,2.793427734375,0.055393385919928546,-0.037009880228340626,-0.0016613938735798
1681147404397500200,2.803500244140625,0.06678864015936851,-0.03326002617552876,-0.004070692638168111
1681147404407572000,2.813572021484375,0.0642617520302534,-0.02370411619246006,-0.004939940620213747
1681147404417644000,2.82364404296875,0.05945581305325031,-0.005575754305720329,0.01519943229537457
1681147404427716900,2.833716796875,0.06258300516307354,-0.024838380919396875,-0.0040645825577899815
1681147404437789000,2.843788818359375,0.057336336681246755,-0.04688581594601273,-0.010527896820381284
1681147404447861000,2.853861083984375,0.05167173504829407,-0.031151801849901673,-0.017103402753174304
1681147404457933800,2.863933837890625,0.0563017329365015,-0.015797580851614475,-0.011109459568001329
1681147404468006000,2.874005859375,0.07665712322294711,-0.020550620597600936,-0.0054402548251673575
1681147404478078000,2.884077880859375,0.03810147485733032,-0.03168912359699607,0.007969481041841208
1681147404488149800,2.894149658203125,0.059954994747042654,-0.021908611077815294,0.013591522174701094
1681147404498222800,2.904222900390625,0.06324000776708126,-0.016566519397497176,-0.014529789405502378
1681147404508295000,2.914294921875,0.04635550846159458,-0.02191182594820857,-0.017080140608595685
1681147404518366700,2.92436669921875,0.04967851540446281,-0.018984832585602997,-0.010622772029601038
1681147404528438800,2.934438720703125,0.06659516341388225,-0.022230390378087758,0.00835021485458128
1681147404538512000,2.944511962890625,0.06751052469313144,-0.02195537282899022,0.011720531537896022
1681147404548583400,2.95458349609375,0.07363923670649528,-0.014809738858044147,0.013250855510868131
1681147404558655500,2.964655517578125,0.06929565454423427,-0.006302168884128332,-0.017267982197739184
1681147404568728300,2.974728271484375,0.04729834226965904,-0.020660510712862012,0.002457403089478612
1681147404578800400,2.98480029296875,0.05313187072873115,-0.03206847830340266,0.0008920078031253069
1681147404588872400,2.99487255859375,0.06584931348264217,-0.026849866872280834,-0.019046974569000303
1681147404598944500,3.004944580078125,0.06584697539508343,-0.017886369824409484,-0.01846563101708889
1681147404609017600,3.015017578125,0.05462532415688037,-0.015019728346914053,-0.010963256030343472
1681147404619089700,3.025089599609375,0.07349602884352206,-0.017426643358170985,0.01181672192136757
1681147404629161500,3.035161376953125,0.05717968481481075,-0.0035486323922872542,0.008345255551673472
