time,seconds_elapsed,z,y,x
1681147568826142700,0.024142822265625,-0.1584609616845846,0.20917261952906846,0.16758447159975767
1681147568836214800,0.03421484375,0.1775976238310337,0.1806786387115717,0.22092224016413092
1681147568846286800,0.044286865234375,0.2592535782545805,0.06490004993379116,0.02992751618537586
1681147568856358700,0.054358642578125,0.3390174353212118,-0.02621931388378143,-0.22166429070308802
1681147568866430700,0.0644306640625,0.44400808810293674,0.02591886963248253,-0.4794556874506175
1681147568876502800,0.074502685546875,0.44516661048829553,0.11799860291481018,-0.6594369915477931
1681147568886574800,0.084574951171875,0.4847732292115688,0.22498305986225603,-0.6837561708986759
1681147568896646700,0.094646728515625,0.6270142929792404,0.2677478503555059,-0.6166060039505362
1681147568906718700,0.10471875,0.8105436449468135,0.17048223886787892,-0.46036301057636736
1681147568916791000,0.114791015625,0.7501099267721175,0.013252280282974243,-0.32370866089984773
1681147568926862800,0.12486279296875,0.510468811482191,-0.13361381293684244,-0.33675475108623504
1681147568936935000,0.134934814453125,0.1882674864053726,-0.1304541798621416,-0.49764016343876716
1681147568947007000,0.145007080078125,-0.0864700767070055,-0.03782207339406013,-0.5313302881272509
1681147568957079000,0.1550791015625,-0.13825520900189875,0.10990735865682363,-0.47236737315747884
1681147568967150800,0.16515087890625,-0.05554477708935737,0.25038199727386234,-0.34377537043802436
1681147568977223000,0.175222900390625,0.02439677463173866,0.29914895079135895,-0.3087974344287068
1681147568987295000,0.185294921875,0.4523375250309705,0.2485387074947357,0.026476868841424583
1681147568997366800,0.19536669921875,0.5068418531566858,-0.0400084775224328,0.7346507840946316
1681147569007438800,0.20543896484375,-0.13737199642658232,-0.524650481569767,0.9324422509748488
1681147569017511000,0.215510986328125,-0.2891875287473202,-0.6898854674339294,0.8480744072441011
1681147569027583000,0.2255830078125,-0.20420213764011858,-0.7516577407360077,0.9339918915696441
1681147569037654800,0.23565478515625,-0.35607729119360443,-0.7394596456810831,1.0578398050345479
1681147569047726800,0.245726806640625,-0.5315986932724714,-0.7088792139783501,1.0063749176699668
1681147569057799000,0.255798828125,-0.45271220356225966,-0.7681579168990254,0.88864504869394
1681147569067871000,0.26587109375,-0.4756628710389137,-0.7532491015806794,0.7798181056849658
1681147569077942800,0.27594287109375,-0.4575111282765865,-0.6969406466424465,0.7448264334112406
1681147569088014800,0.286014892578125,-0.28730887539386746,-0.46870910637825725,0.625885727340728
1681147569098087000,0.2960869140625,-0.4010176721602678,-0.054555766052007675,0.31291268772780895
1681147569108158700,0.30615869140625,-0.9414724565833806,0.3360904419586062,-0.02083871682398021
1681147569118230800,0.316230712890625,-1.3776169717043638,0.6047519000276923,-0.338703510533832
1681147569128302800,0.326302734375,-1.0552022961378096,0.7891793698787689,-0.45631103177182375
1681147569138375000,0.336375,-0.47765609068274495,0.8084145239636301,-0.19523323376476764
1681147569148446700,0.34644677734375,-0.474987163734436,0.5780360347986221,-0.2231640277415514
1681147569158518800,0.356518798828125,-0.23634382731020448,0.5121992885366082,-0.3328155850064009
1681147569168590800,0.3665908203125,0.1622913336277008,0.7846276979237794,-0.21109650026373564
1681147569178662700,0.37666259765625,0.16062193911075592,1.160229773798585,-0.3211024239242077
1681147569188734700,0.386734619140625,0.32012744141221045,1.0270125589638948,-0.8325155305191874
1681147569198806800,0.396806884765625,0.6603717881798744,0.6933370691925287,-1.045104315167293
1681147569208878800,0.40687890625,0.9763894561856985,0.4908265379011631,-0.7253789517499506
1681147569218950700,0.41695068359375,1.1028922680735587,0.4953209267109632,-0.30679062465094026
1681147569229022700,0.427022705078125,1.050975618353486,0.478870142647624,-0.12961553708091378
1681147569239094800,0.4370947265625,1.0056792635560035,0.33929245287030935,-0.10814042204953729
1681147569249166800,0.447166748046875,1.1465624829739332,0.16427520092129708,-0.13503909649960696
1681147569259239000,0.457239013671875,0.9152052119046449,-0.02604074244648218,-0.08368640080522745
1681147569269311000,0.46731103515625,0.13333295016884802,0.09513912085294723,0.0981896675299853
1681147569279383000,0.477383056640625,-0.15479893204569817,0.2553869659543037,0.16213862728402018
1681147569289454800,0.487454833984375,0.03763853352069855,0.15295798035413025,0.02550276311226189
1681147569299527000,0.49752685546875,0.2951870614230633,-0.05802694929391145,-0.16684643964879214
1681147569309599000,0.507598876953125,0.6097182902634144,-0.2603390354037285,-0.22407259395383297
1681147569319671000,0.517671142578125,0.751979812297225,-0.3412950248643756,-0.07908639619648457
1681147569329742800,0.527742919921875,0.5329635518848895,-0.2842182159021497,0.1839981385231018
1681147569339815000,0.53781494140625,0.14318331305384635,-0.27647885382175447,0.30265272112861275
1681147569349887000,0.547886962890625,-0.19215689505934713,0.012849544700980186,0.2962400045420974
1681147569359958800,0.557958740234375,-0.5060036487668752,0.15235095437169074,0.436992875578627
1681147569370030800,0.56803076171875,-0.3723632400840521,-0.20034984612613915,0.37138818450681865
1681147569380103000,0.57810302734375,0.10211655865013598,-0.5050760125279427,0.3023514000944793
1681147569390175000,0.588175048828125,0.44281683249175546,-0.42138329157978294,0.30306473599560557
1681147569400246800,0.598246826171875,0.4859972180485725,-0.09351707260906696,0.2427646541379392
1681147569410320000,0.60831982421875,0.39703649356961246,0.00647065731883049,0.0010223287850618362
1681147569420391700,0.6183916015625,0.2887900538623333,-0.1830482904523611,-0.3452139518737793
1681147569430463700,0.628463623046875,0.15760405259430407,-0.4322419547244906,-0.5727113326445221
1681147569440535800,0.638535888671875,-0.09727321027219295,-0.4644999642506242,-0.38539793209359047
1681147569450607900,0.64860791015625,-0.32733050465881824,-0.45850335418432947,-0.04640898764792364
1681147569460679700,0.6586796875,-0.5483709643751382,-0.3200485309571028,0.07884075087234377
1681147569470751700,0.668751708984375,-0.9165192171126604,-0.3564703821644187,0.14162461236976087
1681147569480823800,0.67882373046875,-0.8517746500015259,-0.047480128577351566,-0.022631445459648965
1681147569490896000,0.688895751953125,-0.6502040299087762,0.5598667563796043,-0.0072463178664445875
1681147569500967700,0.6989677734375,-0.3634247313469648,0.7777250789284705,-0.11086217516362666
1681147569511039700,0.709039794921875,0.007866495591402053,0.4881511812120676,-0.19671433916799724
1681147569521111800,0.71911181640625,0.3553133210837841,-0.08959113133698701,-0.04521700595095753
1681147569531183900,0.729183837890625,0.49746612204611296,-0.37823447020500894,-0.019517615154897795
1681147569541256000,0.739255859375,0.4873392803072929,-0.3678282270029187,0.018221300867199898
1681147569551328000,0.749327880859375,0.4413075969725847,-0.3145961107701063,-0.19822218644767997
1681147569561400000,0.759400146484375,0.5649146874189377,-0.13475830679684878,-0.4252054802164435
1681147569571472000,0.769471923828125,0.9972510424286126,0.28939620306193825,-0.49922187967225906
1681147569581544000,0.7795439453125,1.3825146806180477,0.18595336424410341,-0.060420854126545596
1681147569591616000,0.789615966796875,1.411020644134283,-0.21511340775489807,0.30906478012800215
1681147569601687800,0.799687744140625,1.2216834826707839,-0.2846823262825608,0.34870354755520816
1681147569611759900,0.809759765625,1.112895775693655,-0.2003764418721199,0.6065012279130518
1681147569621832000,0.81983203125,0.612525748899579,-0.2731099619105458,0.18991174648106096
1681147569631904000,0.829904052734375,0.08732230962216854,-0.2880292986229062,-0.4003075511295348
1681147569641975800,0.839975830078125,-0.32849370321929455,-0.33954759667515755,-0.748515862513706
1681147569652048000,0.8500478515625,-0.7103560085326432,-0.4587167046740651,-0.8661945858243852
1681147569662120000,0.860119873046875,-1.0221382309257983,-0.4087833377256989,-0.8436140668343752
1681147569672191700,0.870191650390625,-1.0369798262268304,-0.45347909628152844,-0.801614050168544
1681147569682263800,0.880263916015625,-0.8082827142775059,-0.5615969411730766,-0.7841879182670265
1681147569692335900,0.8903359375,-0.3715577689200639,-0.6638944093480705,-0.6605709640137851
1681147569702408000,0.900407958984375,0.08678981018066406,-0.8315545765325426,-0.5509975134864449
1681147569712480000,0.91047998046875,0.3377975381374359,-0.9924109089210629,-0.48237457057200367
1681147569722552000,0.920552001953125,0.40938568753302096,-1.105224802674353,-0.6015939474534243
1681147569732624100,0.9306240234375,0.3910977511703968,-1.1818912782475353,-0.7441775410484522
1681147569742696000,0.940696044921875,0.4323258336156606,-1.217548574823141,-0.8913990235771984
1681147569752768000,0.95076806640625,0.5938263091266155,-1.1453344024837016,-0.9014131987217813
1681147569762840000,0.960840087890625,0.8269581886529922,-1.265554188579321,-0.8357196603227406
1681147569772912000,0.970912109375,0.8203864090472459,-1.5435130518257616,-0.8123485024116933
1681147569782984000,0.98098388671875,0.6097586222738027,-1.6763742928296326,-0.7036342259969562
1681147569793056000,0.991055908203125,0.2694721899300814,-1.5851789411664008,-0.6180942697469145
1681147569803128000,1.001128173828125,-0.07090308974087238,-1.3969213916331529,-0.6503052252609283
1681147569813200000,1.011199951171875,-0.2426964112073183,-1.4193252388820052,-0.797997247910872
1681147569823272000,1.02127197265625,-0.2715367212444544,-1.6348580410927533,-1.1272221880141644
1681147569833344000,1.031343994140625,-0.21328969945907592,-1.9020321832135318,-1.4799658778056501
1681147569843416000,1.041416015625,-0.06427227342426776,-2.2094901126667854,-1.693925877741724
1681147569853488000,1.051488037109375,0.2064063696861267,-2.3582044641017914,-1.5053177612051367
1681147569863560200,1.061560302734375,0.47114100970029826,-2.158082289251685,-0.992720413261652
1681147569873632300,1.07163232421875,0.6108540162950754,-1.7634663008272646,-0.4991559017639607
1681147569883704000,1.0817041015625,0.7194014847755432,-1.4782859618946909,-0.19558796548657117
1681147569893776100,1.091776123046875,0.836725549429655,-1.2517422285869717,-0.06084872871637344
1681147569903848200,1.10184814453125,1.176639641329646,-1.225903730714321,-0.15225377760753034
1681147569913920300,1.111920166015625,1.5563357085198164,-1.2827429315283894,-0.48583406337611373
1681147569923992000,1.121991943359375,1.858517743396759,-1.377064306257665,-0.5356642622109502
1681147569934064000,1.132064208984375,1.9275310738682745,-1.4349468786448238,-0.41548247003816063
1681147569944136200,1.14213623046875,1.6388362970739603,-1.3176309972971676,-0.30019561030007896
1681147569954208300,1.152208251953125,1.1020499720305204,-0.9779510064139961,-0.19281316701099274
1681147569964280000,1.162280029296875,0.6363765800863505,-0.49962797625511884,-0.17773425582274793
1681147569974352100,1.17235205078125,0.27757717045247554,-0.3467506599217653,-0.27193344721077006
1681147569984424200,1.182424072265625,0.09285422478616237,-0.3622533494800329,-0.24755744137242436
1681147569994496000,1.19249609375,0.6621849750816822,-0.4790535363905132,-0.0900461085628718
1681147570004568000,1.202568115234375,0.7370517077565193,-0.39751375569254155,0.18893880979567765
1681147570014640000,1.21264013671875,0.3622410745203495,0.10540376362726092,0.41511334446482356
1681147570024712200,1.222712158203125,0.26971476651430126,0.3308703692227602,0.20723025328963993
1681147570034784000,1.232783935546875,0.16200550242364406,0.22998466754183172,-0.2911230268545449
1681147570044856000,1.24285595703125,0.3206055803179741,0.14731310633495448,-0.5829102897714823
1681147570054928100,1.25292822265625,0.9937626157909631,0.11309724073931574,-0.3384667426358908
1681147570065000000,1.263,1.658665617659688,0.25641250960975887,0.2798500107552856
1681147570075072000,1.273072021484375,1.9887480513751505,0.5513008803471923,0.8560812611542642
1681147570085144000,1.28314404296875,1.3330501002252102,0.8990991496257483,1.100634479209408
1681147570095216000,1.293216064453125,0.26976269730925556,0.7901908850088715,0.5773327088348568
1681147570105288000,1.303287841796875,0.1688005693912506,0.6440754640258848,-0.09101911831349134
1681147570115360000,1.313360107421875,0.4579460125625133,0.8931015166461467,-0.40477665936760604
1681147570125432000,1.32343212890625,0.7169283726602792,1.2453219862811267,-0.5149866542328149
1681147570135504100,1.333504150390625,1.5126216544777153,1.219644962580502,-0.20068554435390978
1681147570145576000,1.343575927734375,1.5576117198050021,1.0667739298574626,0.490439730540663
1681147570155648000,1.35364794921875,1.0715981351435184,0.9683411742866038,1.3268823713757096
1681147570165720000,1.363719970703125,0.05130523982346057,0.5112082316726446,1.3853322222568094
1681147570175791900,1.3737919921875,-1.094564584711194,0.529967584939301,0.6748834208741784
1681147570185865200,1.383865234375,-1.2388614119648933,0.6862974528793245,-0.018999338318279477
1681147570195937300,1.393937255859375,-0.4746563243448734,0.49798364311419424,-0.6485822739258408
1681147570206009000,1.404009033203125,0.19707915389239786,0.44112968312241135,-0.6755898155778646
1681147570216081200,1.4140810546875,0.3510106554538011,0.7486191767577082,0.09800930599439889
1681147570226153200,1.4241533203125,-0.1800198825418949,0.848351616750285,0.9425863361094147
1681147570236225000,1.43422509765625,-0.996010102456808,0.9457216384604573,1.5583306817293165
1681147570246297000,1.444297119140625,-1.2531652471274137,1.1574795252423733,1.5830983355000614
1681147570256369200,1.454369140625,-0.8231535356730222,1.0637287900079042,0.9498496781758964
1681147570266441200,1.464441162109375,-0.31981238411366936,0.9566939180474727,0.28151814489690585
1681147570276513000,1.474512939453125,-0.02229366487264633,0.8856438210513442,-0.09183296458018012
1681147570286585000,1.484585205078125,-0.1648667370736599,1.0268190822184085,-0.1497772588256281
1681147570296657200,1.4946572265625,-0.28235622142255307,1.2922490110203624,-0.09686908645071089
1681147570306729000,1.50472900390625,0.21119185039699076,1.182316517922282,-0.17686773865390568
1681147570316801000,1.514801025390625,1.013738651371002,1.0125674886997789,-0.1677639380862005
1681147570326873000,1.524873046875,1.587155794197321,0.9480485470380634,-0.06498398362388834
1681147570336945200,1.534945068359375,1.5333844565212726,0.9972478275582194,0.20228032099837437
1681147570347017000,1.545016845703125,1.0082026445537804,1.055151808059588,0.6027083384361118
1681147570357089000,1.555089111328125,0.17727847487926482,1.0662694144014269,0.8777114936821162
1681147570367161000,1.5651611328125,-0.5188000019758939,0.9871516001533717,0.8366322451230138
1681147570377233200,1.575233154296875,-0.6074503453314304,0.8507486679546534,0.64700786421597
1681147570387305000,1.585304931640625,-0.413417719528079,0.8319079930800944,0.5296154835660011
1681147570397377000,1.595376953125,-0.12917466144561768,0.9952440134551376,0.43941696092039345
1681147570407449000,1.605448974609375,-0.14546704007685182,0.9712648066483437,0.17319515108838676
1681147570417521000,1.61552099609375,-0.4097784862428903,0.9173425892595202,-0.1914460981751792
1681147570427593000,1.625593017578125,-0.5361170474797486,0.8329044567715376,-0.37094825871959325
1681147570437665000,1.6356650390625,-0.4604647173851728,0.8389968553625047,-0.3616720424607396
1681147570447737000,1.645737060546875,-0.3390279567152262,0.9278496624875813,-0.1524664887764491
1681147570457809200,1.65580908203125,-0.2616460263490677,0.8657773833256215,0.2971211164918728
1681147570467881200,1.665881103515625,-0.167462598785758,0.7981495158631354,0.651188876227662
1681147570477953300,1.675953369140625,-0.2329793193131685,0.760557451832667,0.7326833564791828
1681147570488025000,1.686025146484375,-0.034600773259997365,0.8293824931904673,0.5144321621552109
1681147570498097200,1.69609716796875,0.563899372896552,0.8187177451826632,0.1844399457401596
1681147570508169200,1.706169189453125,1.1029577345252037,0.9330923123814165,0.00006897358298301697
1681147570518241300,1.7162412109375,1.4408914662629364,0.8886381074965,-0.05293362647658214
1681147570528313000,1.72631298828125,1.787022532981634,0.8808053680442273,0.291788486759644
1681147570538385200,1.73638525390625,-2.5124141980826855,1.4654529299370944,3.022631665152311
1681147570548457200,1.746457275390625,-3.7504981959342953,0.6957047481719404,1.68380181248188
1681147570558529000,1.756529052734375,-7.265918054449558,0.15662855862565336,0.23687829951308667
1681147570568601000,1.76660107421875,-1.9082377598553895,-1.0961479083798824,-1.5875389482960105
1681147570578673200,1.776673095703125,-0.6998351990401744,-0.020900557413278148,-0.23758891373416408
1681147570588745200,1.7867451171875,1.70731946619153,0.6398500283505767,-0.16084361903741956
1681147570598817000,1.796817138671875,-1.199737608322501,0.5957573867870495,1.5854476751051843
1681147570608889000,1.80688916015625,1.0071376456707715,0.11033465329133905,1.9284831138961016
1681147570618961200,1.816961181640625,0.30389293044805527,0.28388786970293145,1.3059871751241385
1681147570629033200,1.827033203125,0.4290460812926292,0.013452177636092529,0.362544149120152
1681147570639105000,1.83710498046875,0.1211655425131321,0.2855022095643915,0.4533613151207566
1681147570649177000,1.847177001953125,-1.888756814315915,-0.6975773371107876,-1.1193049851488321
1681147570659249200,1.857249267578125,0.5688076032042503,-0.09312048364006914,0.048148164032027124
1681147570669321000,1.867321044921875,-0.017742577439546586,-0.09859753594482316,-0.11343380661676637
1681147570679393000,1.87739306640625,-0.15760346807241438,-0.07007186308111996,-0.14267370129758492
1681147570689465000,1.887465087890625,-0.18467501487135887,0.009400892951292917,-0.1257688807232771
1681147570699537200,1.897537109375,-0.010127426260709761,0.03298643339853734,0.010556967651238664
1681147570709609200,1.907609130859375,0.30054946523904796,0.23450525023881344,0.22784044032106174
1681147570719681300,1.917681396484375,0.5287468109726906,0.07768010046198032,0.19680954317077992
1681147570729753300,1.92775341796875,0.18757248987853525,-0.034088494622614235,0.009214298037742263
1681147570739825200,1.9378251953125,0.03868365865945816,-0.015873577830428257,-0.0038183161791414022
1681147570749897200,1.947897216796875,0.09120704210102558,-0.019585200498392803,-0.0028693037920398635
1681147570759969300,1.95796923828125,0.03434475267231464,-0.021168588099163024,-0.006636885297787375
1681147570770041300,1.968041259765625,0.062030047455430025,-0.023007156037399543,-0.002056288642412983
1681147570780114200,1.9781142578125,0.06846914059221744,-0.00764916304629296,0.005920110763981938
1681147570790186200,1.988186279296875,0.07999298964738845,-0.016550600309157743,0.013294822516757994
1681147570800258000,1.998258056640625,0.06218494575619697,-0.015342694957274942,0.014391700675641186
1681147570810330000,2.008330078125,0.07953881613910198,-0.01022446602755226,0.00752769665766973
1681147570820402200,2.018402099609375,0.07834054626524448,-0.0003464388174936175,0.017029693629569374
1681147570830474200,2.02847412109375,0.05589549022316932,-0.013293142016325145,0.011137699281796812
1681147570840546000,2.038546142578125,0.05095511121153831,-0.018354133466631173,0.002817756267893128
1681147570850618000,2.0486181640625,0.08192775710225104,-0.005028632683819159,0.015256153751560485
1681147570860690200,2.058690185546875,0.07324643799662589,0.003267742224829271,0.01736090747846756
1681147570870762000,2.068761962890625,0.07968027043640613,-0.007308167588897049,0.00039485366963781413
1681147570880834000,2.078833984375,0.06995441071391105,-0.019245803343039006,-0.00866330395832192
1681147570890906000,2.088906005859375,0.08656243116557598,-0.016811835928075013,-0.0003650019540684297
1681147570900978200,2.098978271484375,0.10481646525859832,-0.007006161568174138,0.004777174106822349
1681147570911050000,2.109050048828125,0.0793763190537691,-0.019995434400252997,0.0032720485071884467
1681147570921122000,2.1191220703125,0.0778776049286127,-0.014286135109048336,0.0023901785055873916
1681147570931194000,2.129194091796875,0.08685469211041927,-0.005209734004922211,0.008207130289194174
1681147570941266200,2.13926611328125,0.07428396435081959,-0.012094598147831856,0.020732767664897254
1681147570951338200,2.149338134765625,0.06665303108096123,-0.01868820599289611,0.0007730712983058765
1681147570961410300,2.159410400390625,0.05977028582990169,-0.015338384108338505,-0.00004348294869996607
1681147570971482400,2.169482421875,0.07113865206241607,-0.006395171796670183,-0.008773335637478157
1681147570981554200,2.17955419921875,0.0777209530621767,-0.010565169224003329,0.005832615143619478
1681147570991626200,2.189626220703125,0.06814356189966202,-0.02523997485707514,0.003418416441627778
1681147571001698300,2.1996982421875,0.07113572945296764,-0.02610640069437213,-0.007053142515057697
1681147571011770400,2.209770263671875,0.05183481665551662,-0.00994129257146269,0.011603567794454284
1681147571021842200,2.21984228515625,0.08640227216780186,-0.016761247385153544,-0.00011200444053392857
1681147571031914200,2.229914306640625,0.06904431013166903,-0.008071023453865199,0.001694802952837199
1681147571041986300,2.239986328125,0.06604980449080466,0.0003154317578766495,-0.011724892619182355
1681147571052058000,2.25005810546875,0.06260872412621975,-0.008120324221998453,0.006273390314215794
1681147571062130200,2.260130126953125,0.07817103491723537,-0.0064660998747218396,0.010993080346449278
1681147571072202200,2.2702021484375,0.09807517430484294,-0.01564308440964669,0.004627828764007426
1681147571082274300,2.2802744140625,0.054829322296380996,-0.01870257244496606,0.020886305125639774
1681147571092346000,2.29034619140625,0.06125847856104374,-0.017077857319964095,0.010206227117963134
1681147571102418200,2.300418212890625,0.07023673478662967,-0.01277007712344639,0.0096779015280772
1681147571112490200,2.310490234375,0.06051087506413459,-0.01337093822658062,-0.022089141576760448
1681147571122562000,2.32056201171875,0.07218260815739631,-0.01760184466145001,-0.016826599672366865
1681147571132634000,2.330634033203125,0.07966215025782585,-0.0060098988061305135,0.020380291832261716
1681147571142706200,2.3407060546875,0.06948679320216178,-0.006116354855289682,-0.0009239007787313312
1681147571152778200,2.3507783203125,0.08190612979233264,-0.024729623315297065,0.005042359815072268
1681147571162850000,2.36085009765625,0.07547054378688335,-0.0010076609388925135,-0.00798566955823917
1681147571172922000,2.370922119140625,0.07562018139064311,-0.013164976458856835,0.00444483687991742
1681147571182994200,2.380994140625,0.08040975375473498,-0.016596567475888876,-0.0028214232294354585
1681147571193066200,2.391066162109375,0.08923895689845085,-0.0038911074207164343,-0.001183770991046913
1681147571203138000,2.401137939453125,0.06439560754299163,-0.021022667689295484,0.0000713116705417633
1681147571213210000,2.411210205078125,0.05002922853827476,-0.001873465721681714,0.0006042951692361385
1681147571223282200,2.4212822265625,0.06514379556179047,-0.0018125475809909403,-0.005086893076542765
1681147571233354000,2.43135400390625,0.057063949480652805,-0.015847712736809624,0.015091976165794767
1681147571243426000,2.441426025390625,0.06768938839137553,-0.018595732803316785,0.007644313341239467
1681147571253498000,2.451498046875,0.06440028371810913,-0.009047905662003903,0.0008568725576624274
1681147571263570200,2.461570068359375,0.08400280981063843,-0.012834164468757807,0.007763925699493847
1681147571273642000,2.47164208984375,0.06320084480047225,-0.002619763177493587,0.0036557642948813734
1681147571283715300,2.48171533203125,0.060954527178406714,-0.01098500207127072,0.007001394061511382
1681147571293787100,2.491787109375,0.05945873566269874,-0.003298968480154872,0.007880030926410108
1681147571303859200,2.501859130859375,0.07726619503200054,-0.011352173149539157,0.01274251782966312
1681147571313931300,2.51193115234375,0.07487199337184429,-0.004932396634574979,0.008859817477688194
1681147571324003300,2.52200341796875,0.05392331336736679,-0.018371212465595452,0.00005767587083391845
1681147571334075100,2.5320751953125,0.06349895096421242,-0.0126457657571882,-0.0038689275549491863
1681147571344147200,2.542147216796875,0.057961190581321716,-0.013596079618809744,0.0019500380892306566
1681147571354219300,2.55221923828125,0.07112813066840172,-0.01299906357373111,0.0013158409720752386
1681147571364291000,2.562291015625,0.052422845676541326,0.0014276399166323244,-0.006167199126537889
1681147571374363100,2.572363037109375,0.06289513985216617,-0.01715880446853116,0.012504238394647836
1681147571384435200,2.582435302734375,0.05810732105374336,-0.01791064574914053,-0.0005505465548485517
1681147571394507300,2.59250732421875,0.07756137858629227,-0.009214686196809634,-0.003650672561232932
1681147571404579000,2.6025791015625,0.0751677614480257,-0.016496084509789944,0.007037744016526267
1681147571414651100,2.612651123046875,0.07666296844184398,-0.015070508686080574,0.018333803064655513
1681147571424723200,2.62272314453125,0.07785714666247368,-0.01849704906865954,-0.0015962516489205882
1681147571434795300,2.632795166015625,0.07141980709135531,-0.011636205122154205,0.007370058410544879
1681147571444867000,2.6428671875,0.07725684268176555,-0.008501195032056421,0.0029234770981129256
1681147571454939100,2.652939208984375,0.0591512771487236,-0.0025710651975590732,-0.01039236537378747
1681147571465011200,2.66301123046875,0.05511047732532024,-0.008280044828355312,0.010140358807519078
1681147571475083000,2.6730830078125,0.06334171457588672,-0.00006560344896279275,0.012576184819429181
1681147571485155000,2.683155029296875,0.06379004286527633,-0.007175855579273775,-0.003689634598442353
1681147571495227100,2.69322705078125,0.07306582073271274,-0.011915506120724603,-0.016763877733657135
1681147571505299200,2.70329931640625,0.06947276467680931,-0.012819935014005749,0.004763725536782294
1681147571515371000,2.71337109375,0.06558160245716571,-0.01276291673029773,0.00296866794670932
1681147571525443000,2.723443115234375,0.08024550310373306,-0.0058129240624606605,-0.00665760842540767
1681147571535515100,2.73351513671875,0.06602817718088627,-0.005709847280476242,0.0026653832843527197
1681147571545587000,2.7435869140625,0.06632628334462642,0.002225256567727774,0.0037953919612802563
1681147571555659300,2.7536591796875,0.06617723026275635,-0.007301326856156811,0.018734045295463873
1681147571565731300,2.7637314453125,0.08293722640573978,-0.008833842786215245,0.011966628953185864
1681147571575803400,2.773803466796875,0.07560498382151126,0.005214848571456969,-0.005337945228163153
1681147571585875200,2.783875244140625,0.07186345920562744,-0.004893809056701138,-0.001755629761982709
1681147571595947300,2.793947265625,0.05959317569732666,-0.006504322126414626,-0.0024324741441989314
1681147571606019300,2.804019287109375,0.060493923929333684,-0.012503032818250357,0.00929247327391058
1681147571616091100,2.814091064453125,0.06453413923084736,-0.01969086196310818,0.0037310534542193633
1681147571626163200,2.8241630859375,0.08503507546782493,-0.008240370405092835,0.008860840390995144
1681147571636235300,2.8342353515625,0.07111877831816672,-0.009291468626912682,-0.00023685009633190928
1681147571646307300,2.844307373046875,0.07785130144357681,-0.02151377567448653,0.0032405710901133714
1681147571656379100,2.854379150390625,0.08218903838694096,-0.0023508100430015473,-0.004112495086435229
1681147571666451200,2.864451171875,0.06602817718088627,-0.008240388671401888,-0.008468123879516497
1681147571676523300,2.874523193359375,0.05929448501169681,-0.012259287190251052,-0.0023817166379187255
1681147571686595300,2.88459521484375,0.06288637202382087,-0.009273229717323556,0.010703180322051047
1681147571696667100,2.894667236328125,0.07500584888458252,-0.01458590350691229,-0.0051119864186039195
1681147571706739200,2.9047392578125,0.06961597253978252,-0.002060649723699316,0.0023048794088885187
1681147571716811000,2.91481103515625,0.06751929252147675,-0.009127090111747383,0.011494828456663527
1681147571726882800,2.9248828125,0.08442483461499213,-0.0065959459326229986,0.00800934726134874
1681147571736956000,2.934955810546875,0.07005728656649589,-0.014745806776359676,0.005833263597590848
1681147571747028000,2.945028076171875,0.08142623732089996,-0.01782630106708966,0.0057952879410702735
1681147571757099800,2.955099853515625,0.0401239205956459,-0.018977754390845075,-0.003706097109476104
1681147571767171800,2.965171875,0.04835223523676395,0.0004515614260919392,-0.004975765418843366
1681147571777244000,2.975243896484375,0.0832154588252306,0.0031610213141888377,0.01058600194947794
1681147571787316000,2.98531591796875,0.10386661718785763,0.0012202716431114822,0.00836050791973248
1681147571797387800,2.9953876953125,0.09668401220738887,0.006986004696134478,0.009824223796743898
1681147571807459800,3.0054599609375,0.02829845824539661,0.006776709327008574,-0.0032097101609688252
1681147571817532000,3.015531982421875,0.030541853258013722,-0.005463937094854191,0.002164525656704791
1681147571827603700,3.025603759765625,0.04475684109330177,0.0020178791610524056,0.017541492776339873
1681147571837675800,3.03567578125,0.14157412429153918,0.001976396373193711,-0.002416290194378234
1681147571847748000,3.045748046875,0.09354396061599254,-0.0010471526990644634,0.0010756846738047897
