time,seconds_elapsed,z,y,x
1681320647643985700,0.030985595703125,-0.13577274453639984,-0.17100151350162923,-0.049183608026988804
1681320647653955600,0.04095556640625,-0.16246902828216553,-0.15858159238956868,-0.02246229943782091
1681320647663925800,0.05092578125,-0.21338731461465357,-0.17511647453978657,0.02186707349102944
1681320647673896000,0.06089599609375,-0.15327508347928523,-0.18647585374824702,-0.004367072635702789
1681320647683865900,0.070865966796875,-0.09944529361426829,-0.12913279506526887,-0.08292235763017088
1681320647693835800,0.080835693359375,-0.08141863853633403,-0.1056932480931282,-0.14419592416249213
1681320647703806000,0.090805908203125,-0.05734510450959205,-0.12288381767310201,-0.1592163466291502
1681320647713775900,0.10077587890625,0.003317746245861053,-0.1213006401348859,-0.1931442986615002
1681320647723745800,0.110745849609375,0.037649054914712904,-0.08213906176537275,-0.23243892882615327
1681320647733715700,0.1207158203125,0.04508709596097469,-0.10559658278562128,-0.20353826690390706
1681320647743685600,0.130685546875,0.11995032150447368,-0.19442747033983468,-0.15471866988372057
1681320647753655800,0.14065576171875,0.10199906975030898,-0.1988548583280295,-0.14810685052853076
1681320647763626000,0.1506259765625,0.07385726337134838,-0.1330167238265276,-0.18333364673238248
1681320647773596000,0.160595947265625,0.10768588321506976,-0.11410532180331646,-0.1969557467084378
1681320647783565800,0.17056591796875,0.07398878079652786,-0.11563187378346919,-0.17185484239533544
1681320647793535700,0.18053564453125,0.010082418075203894,-0.07765877454616128,-0.12152648478001356
1681320647803504600,0.190504638671875,0.04278524875938892,-0.04945157478079199,-0.10613715593572705
1681320647813474800,0.200474853515625,0.07586977223753928,-0.060240095298737285,-0.09007328883074224
1681320647823444700,0.21044482421875,0.1465489900946617,-0.11839067097231745,-0.10417626765891909
1681320647833415000,0.220414794921875,0.2275590478301048,-0.17010514918379485,-0.23311080020572988
1681320647843384800,0.230384765625,0.031416298004984855,-0.17343129793182013,-0.3076885233387351
1681320647853355000,0.24035498046875,-0.1310153208762407,-0.17234036088995636,-0.2355012755388394
1681320647863325000,0.250324951171875,-0.1064905359506607,-0.11032996798306703,-0.12174535169508308
1681320647873294800,0.260294921875,0.07975918089151382,-0.04240085255168378,-0.04709938563145697
1681320647883264800,0.2702646484375,0.14614099381566048,-0.03585910275802016,-0.00140749217774719
1681320647893234700,0.280234619140625,0.06903378873765469,-0.03880370484255254,-0.051050644007883964
1681320647903204900,0.290204833984375,0.00994447090923786,-0.01724872950799763,-0.07911796037852764
1681320647913174800,0.3001748046875,-0.13191314649879932,-0.01120484623387456,-0.07027312127426266
1681320647923144700,0.310144775390625,-0.21502222234010696,-0.01591974592655897,-0.1171306244412437
1681320647933115000,0.320114990234375,-0.12049158877432346,-0.01090856670103967,-0.22137111644279212
1681320647943084800,0.330084716796875,-0.22063830865621564,0.029062866746634244,-0.3262474586624652
1681320647953055000,0.340054931640625,-0.3974392291516065,0.06836589941345154,-0.3275558378472924
1681320647963025000,0.35002490234375,-0.3563648759633303,-0.005265592378005385,-0.26667181862182915
1681320647972994800,0.359994873046875,-0.28423838190734385,-0.10767039338499307,-0.224232022299245
1681320647982964700,0.36996484375,-0.25158698914945127,-0.1618108566343784,-0.19398959037922323
1681320647992933600,0.37993359375,-0.21910393869578837,-0.22452961700633167,-0.12294405996035784
1681320648002903800,0.38990380859375,-0.1787345189064741,-0.3119417968690395,-0.046140185210481285
1681320648012874000,0.3998740234375,-0.2578326055407524,-0.38509412684142585,-0.009565189268067478
1681320648022844000,0.409843994140625,-0.39054128633141516,-0.3817040460117161,-0.008262399573810399
1681320648032813800,0.419813720703125,-0.4739864622592926,-0.37532932334803043,-0.04984861127436161
1681320648042783700,0.42978369140625,-0.5307184033066034,-0.42569041418917475,-0.11271101790070533
1681320648052754000,0.43975390625,-0.5459001903474331,-0.502336869887635,-0.25007760749980806
1681320648062723800,0.449723876953125,-0.6793243259310722,-0.5870819494329392,-0.3481826289536431
1681320648072693800,0.45969384765625,-0.9112696260213852,-0.7166685526803136,-0.4253487611446529
1681320648082663700,0.46966357421875,-0.9570295066773891,-0.8435351563792676,-0.5551801329333335
1681320648092633600,0.479633544921875,-0.8053121740341186,-0.7546972545623779,-0.560256559414789
1681320648102604000,0.48960400390625,-0.5873381161510944,-0.2507967886198312,-0.28110994768850506
1681320648112574000,0.499573974609375,-0.9318547334104775,-0.2071847336474806,-0.31833325147181746
1681320648122543900,0.5095439453125,-1.273524729067087,-0.7331845839995891,-0.29722492392621935
1681320648132513800,0.519513671875,-1.1821984445005655,-1.0533386942230165,-0.2004115862507373
1681320648142483700,0.529483642578125,-1.194444762611389,-0.9351343396030366,-0.07414145060759038
1681320648152454000,0.539453857421875,-1.1000573369085789,-0.7024887822888791,-0.02824011565428227
1681320648162423800,0.549423828125,-0.9326812473624944,-0.6823330062277615,-0.09936223670700564
1681320648172393700,0.559393798828125,-1.2666904991328716,-0.6952358885511756,-0.22873994644405318
1681320648182363600,0.56936376953125,-1.914824152508378,-0.8640292244840413,-0.23892690260596572
1681320648192332800,0.579332763671875,-2.318907641980052,-1.0671895249210297,-0.19547677846336736
1681320648202303000,0.589302978515625,-2.2400877877652645,-0.9818924375161528,-0.1401731166535057
1681320648212273000,0.59927294921875,-2.00829387884438,-0.742151734309271,-0.22234982528183608
1681320648222242800,0.609242919921875,-2.027050601762533,-0.6039185910087078,-0.2997513736639172
1681320648232212700,0.619212646484375,-2.176048154053092,-0.538254461367242,-0.3197875784659758
1681320648242182700,0.6291826171875,-2.220563587605953,-0.4343297207839787,-0.3651218906536698
1681320648252152800,0.63915283203125,-2.322666702252626,-0.28098465907471254,-0.4035912855079397
1681320648262122800,0.649122802734375,-2.508683194860816,-0.17289658826692028,-0.3737407755149528
1681320648272093000,0.659093017578125,-2.291807453608513,-0.1980369478075765,-0.21826343275103716
1681320648282062800,0.669062744140625,-1.863583210092783,-0.04541362450160086,-0.15025102295037357
1681320648292032800,0.67903271484375,-1.7094155616879463,-0.07279003599863498,-0.2299500346198678
1681320648302003000,0.6890029296875,-1.3179840485185383,-0.43793461340814827,-0.18092764503657816
1681320648311972900,0.698972900390625,-0.7363917825430631,-0.48855530503354966,-0.2795502971563488
1681320648321942800,0.70894287109375,-0.43954467895328997,-0.4709905683789402,-0.3791339032627642
1681320648331912700,0.71891259765625,-0.2145674643099308,-0.4141834066709503,-0.5220560080971568
1681320648341882600,0.728882568359375,0.15374503907859324,-0.1652314056675881,-0.6671853406522422
1681320648351852800,0.738852783203125,0.43615094486176964,0.057598129422590134,-0.7644524865098297
1681320648361822700,0.74882275390625,0.6462959165543317,0.1221606910303235,-0.9031326429255306
1681320648371793000,0.75879296875,0.8863280769884586,0.005170899831876159,-0.9272522080510854
1681320648381761800,0.76876171875,1.087432833135128,-0.05549304690212011,-0.7245458619266748
1681320648391731700,0.778731689453125,0.9109259271502494,-0.054118178352341055,-0.3541123477961868
1681320648401702000,0.788701904296875,0.44452363640964027,0.05706351108923554,-0.16779731063283979
1681320648411671800,0.798671875,0.12732815679609774,0.26881343376040456,-0.0745635484771803
1681320648421641700,0.808641845703125,-0.08709668417274952,0.4591103071015328,0.04512826822157949
1681320648431612000,0.81861181640625,-0.17525427557528017,0.6274906783193349,0.008994440175406635
1681320648441581800,0.828581787109375,-0.2221218252122402,0.6247765239898115,-0.10487743819821625
1681320648451552000,0.838552001953125,-0.15346154596209524,0.485631745737046,-0.1852302010687068
1681320648461522000,0.84852197265625,0.5968968026131392,0.42403402528427536,-0.038375542558357116
1681320648471491800,0.858491943359375,1.5006407093048095,0.517856656711176,0.13122815990932285
1681320648481461800,0.868461669921875,2.019748754316568,0.7854323653701692,0.1734855123370886
1681320648491431700,0.878431640625,2.0201526589423415,1.130524152169004,0.2622233513129875
1681320648501401900,0.88840185546875,1.6157710633069275,1.3051612456940114,0.5023667901018635
1681320648511371800,0.898371826171875,0.9205196849256754,0.8030439368411898,0.6413963079445064
1681320648521341700,0.908341796875,0.43402971492409703,0.1641242481432855,0.1831441520422697
1681320648531311900,0.918311767578125,0.6230541571766137,-0.04350486827082932,-0.38439803433604536
1681320648541281800,0.92828173828125,0.888970115929842,0.1716428070798516,-0.6465000608243048
1681320648551252000,0.938251953125,0.8135498410254717,0.376949398830533,-0.5812865244945511
1681320648561222000,0.948221923828125,0.4294634299218654,0.37389899828396733,-0.24444866170212626
1681320648571191800,0.95819189453125,-0.025249592068791387,0.3676985362086445,0.18375073963329194
1681320648581161700,0.96816162109375,-0.1833481501817703,0.4842065352395177,0.5306445343527942
1681320648591132000,0.9781318359375,-0.0686281305462122,0.6474905331663787,0.6418948320511728
1681320648601100800,0.988100830078125,-0.002350362518429756,0.6836825942058116,0.6354772931590676
1681320648611071000,0.998071044921875,-0.10000409654080868,0.5417958968337625,0.6073513419363648
1681320648621041000,1.008041015625,-0.44333062723279,0.39990342730805273,0.39127171949781475
1681320648631015200,1.01801513671875,-0.6245517022579908,0.38339536009952424,0.08005451057627797
1681320648640985000,1.027985107421875,-0.4949246208697557,0.505815724979341,-0.17966427403725682
1681320648650955000,1.037955078125,-0.23318214840888976,0.6522331976488233,-0.28138518443331123
1681320648660925200,1.04792529296875,0.11896657116413116,0.6489193969257175,-0.19658954374454915
1681320648670895000,1.05789501953125,0.32468963476121426,0.5027605021271855,-0.003314019918814301
1681320648680865000,1.067864990234375,0.23278993422091007,0.38017873614057895,0.2376237841181457
1681320648690835000,1.0778349609375,0.032220600125193594,0.2695144947018474,0.35072095179222523
1681320648700804900,1.087804931640625,-0.1351864690810442,0.1991572753407061,0.3075831632681191
1681320648710775000,1.097775146484375,-0.24124679692089557,0.20743834308236836,0.1883132983084768
1681320648720745000,1.107744873046875,-0.09457505722939967,0.20115224855020641,-0.00392732951156795
1681320648730715100,1.117715087890625,0.1891477763712406,0.1908908937115222,-0.15386713108830152
1681320648740685000,1.12768505859375,0.40777240711748597,0.18347331093139946,-0.2213494526002556
1681320648750655200,1.1376552734375,0.7055418862491846,0.1833399668753147,-0.23578327081799505
1681320648760625200,1.147625244140625,0.8022159615844487,0.1801616291001439,-0.1763311110265553
1681320648770595000,1.157594970703125,0.5471779551982879,0.19383542273081839,-0.10993161631524562
1681320648780565000,1.16756494140625,0.35334582040309903,0.2255929353889078,-0.15722148301750422
1681320648790535000,1.177534912109375,0.4854091890275478,0.30488267213776704,-0.211991476342082
1681320648800505000,1.187505126953125,0.799500272884965,0.3802412069175392,-0.22090821163877844
1681320648810475000,1.19747509765625,0.8119447439163923,0.39438583293035623,-0.17712883727550505
1681320648820445200,1.207445068359375,0.95130236120224,0.34627507829926907,-0.06714914403483271
1681320648830414000,1.2174140625,1.1415484542042016,0.267182617688179,0.04871420041695237
1681320648840384000,1.227384033203125,1.1202788716822862,0.24412403285764156,0.06724369045048952
1681320648850354000,1.23735400390625,1.1501204677164554,0.23661489933654664,0.06602671587616205
1681320648860324000,1.247323974609375,1.3615367745190858,0.24234043737649916,0.10408011380806564
1681320648870294000,1.2572939453125,1.7125392466664313,0.25807196725457904,0.127956225566566
1681320648880264000,1.267263916015625,1.8129525085300207,0.293339387729764,0.17627938083931802
1681320648890234000,1.277234130859375,1.7821347609400748,0.2657277427047491,0.19384411749392746
1681320648900204300,1.287204345703125,1.754177663478255,0.21511326162442565,0.19471783158853648
1681320648910174200,1.29717431640625,1.7180875284433363,0.22731837094202637,0.19294936061128973
1681320648920144100,1.30714404296875,1.8353490492552518,0.2761706646554172,0.19185060558915137
1681320648930114000,1.317114013671875,1.9704542697936296,0.29864830779284235,0.20015227772742508
1681320648940084000,1.327083984375,1.8955776002466678,0.2311436283186078,0.20949995178729294
1681320648950054100,1.33705419921875,1.795424450623989,0.10871668756753206,0.22228534521088003
1681320648960024000,1.347024169921875,1.769444790714979,0.016479133374989033,0.2861713957965374
1681320648969994000,1.356993896484375,1.788229570683837,0.02495864629819989,0.28747882513329387
1681320648979964000,1.3669638671875,1.7694424526274204,0.10805252457037567,0.2723484760187566
1681320648989934000,1.37693408203125,1.728053042140603,0.17561361040696502,0.24323548652008176
1681320648999904300,1.386904296875,1.726038779708743,0.1666395919650793,0.1938444097548723
1681320649009874200,1.396874267578125,1.7555834386229514,0.08910773173421621,0.1382980252303183
1681320649019844000,1.406843994140625,1.6703741756319999,-0.0028247020319104193,0.08721373468115926
1681320649029814000,1.41681396484375,1.5045032299518584,-0.06775982327908277,0.056333881640434263
1681320649039784000,1.426783935546875,1.4738812971949578,-0.08904445723965763,0.014968582681566476
1681320649049754000,1.436754150390625,1.5342419501334428,-0.06862988411188126,-0.030715675454959273
1681320649059723300,1.44672314453125,1.4801614003777503,-0.06890475553050637,-0.05657185511477291
1681320649069693200,1.456693115234375,1.3973942698419093,-0.04498933467492461,-0.05914229012466967
1681320649079663000,1.4666630859375,1.3112597086995839,-0.03557677868530154,-0.07925773417539894
1681320649089633000,1.476633056640625,1.209849837014079,-0.06103767541721463,-0.08536489194408059
1681320649099603200,1.486603271484375,1.1515525463461875,-0.07488689868003129,-0.08191811249107121
1681320649109573000,1.496572998046875,1.205342004200816,-0.08598229319006204,-0.07467705532163381
1681320649119543000,1.50654296875,1.1214420702427625,-0.06614011312276125,-0.10087978339679539
1681320649129513000,1.516512939453125,0.9537743042737244,-0.06295768369436264,-0.1298980072841048
1681320649139483000,1.52648291015625,0.9112275404453277,-0.10129252891615033,-0.1429953162010759
1681320649149453000,1.536453125,0.9012088352560996,-0.1444184078067541,-0.17990677755624054
1681320649159423200,1.54642333984375,0.9487690433323382,-0.178710918835178,-0.23803448381088674
1681320649169393200,1.55639306640625,1.044433064842224,-0.16722776711657641,-0.21562574119120834
1681320649179363000,1.566363037109375,1.0044973602950573,-0.14268983044847844,-0.14467808165624738
1681320649189333000,1.5763330078125,0.8057394595354795,-0.11468757867068051,-0.12097688807323574
1681320649199303200,1.58630322265625,0.808002728292346,-0.10994615629725157,-0.1334049194265157
1681320649209273000,1.596273193359375,0.9667243867397308,-0.08502017015963792,-0.16254348175786434
1681320649219243000,1.606242919921875,1.074701946377754,-0.06423106463104486,-0.21702844759598372
1681320649229213000,1.616212890625,0.9032640142202377,-0.06780994603112339,-0.2176196184221655
1681320649239182800,1.626182861328125,0.7894687082141637,-0.018437573966383933,-0.1501755100287497
1681320649249153000,1.636153076171875,0.8406184652149676,0.1799191255811602,-0.1382736945066601
1681320649259123200,1.646123291015625,0.6959498820394278,0.14555018831565975,-0.11379384470134973
1681320649269093000,1.656093017578125,0.63984630202353,-0.002513005734235048,0.004823913025110959
1681320649279063000,1.66606298828125,0.7870254067152738,-0.016976488437876105,0.08716324660293757
1681320649289033200,1.676033203125,0.9063508743196725,0.06366152111478149,0.09653167118988931
1681320649299002000,1.686002197265625,0.9559323590904474,0.18228848506100476,0.04657430231142789
1681320649308972000,1.695971923828125,0.9255366363048553,0.11863492805697023,0.054162236689776176
1681320649318942000,1.70594189453125,0.7851222034424543,-0.11330138500928878,0.0932217063916847
1681320649328912100,1.715912109375,0.7895172235310077,-0.25560725764147935,0.1552097413362935
1681320649338882000,1.725882080078125,0.9734130707234143,-0.1349624875994399,0.17425178400184957
1681320649348852200,1.735852294921875,0.9259241743177175,-0.0016822905311360955,0.10141611876320093
1681320649358822100,1.745822265625,0.6486971324771642,0.029392865885980425,0.044714317125827074
1681320649368792000,1.7557919921875,0.6252724177479744,0.10457947816494852,0.01683981991354376
1681320649378762000,1.765761962890625,0.6941454629659652,0.21322247944176195,-0.030999314701929688
1681320649388732000,1.77573193359375,0.4344014708459377,0.1528287279512733,-0.09452044096533209
1681320649398702000,1.7857021484375,0.2996235825657844,-0.015467399049177766,-0.15099091806486248
1681320649408672000,1.795672119140625,0.3880915550917387,-0.13360716400034725,-0.1615048228925094
1681320649418642000,1.805641845703125,0.4100520424872637,-0.21265004984866825,-0.11189308911394327
1681320649428612000,1.815612060546875,0.4213642946183681,-0.1962192125948146,-0.14018997645676134
1681320649438582300,1.825582275390625,0.46820203363895413,-0.11930552079491316,-0.21672486153952777
1681320649448552200,1.83555224609375,0.30472879675030706,0.01122665620688349,-0.21990382036920636
1681320649458522000,1.845522216796875,-0.00750935271680355,0.20947014117091892,-0.2700734437588602
1681320649468492000,1.855491943359375,-0.19970657978653908,0.3644466582732275,-0.31675957241430874
1681320649478462000,1.8654619140625,-0.572155744588375,0.39727366332635283,-0.2542788403156213
1681320649488432000,1.87543212890625,-0.8510276310265064,0.22995807179585098,-0.10532320920433849
1681320649498402000,1.885402099609375,-0.7325199095457792,-0.03586765139065683,0.06918242169441655
1681320649508372000,1.8953720703125,-0.6418208169668913,-0.25249434978533536,0.17250720535684375
1681320649518342100,1.905342041015625,-0.38229718959927556,-0.4169686534753069,0.18025140800913794
1681320649528312000,1.91531201171875,-0.003710544955730438,-0.4349178228702396,0.0462817308393307
1681320649538282200,1.9252822265625,0.0024041385322809217,-0.29258250494785604,-0.047186689455574374
1681320649548251100,1.935251220703125,-0.36537469637095926,-0.0065888768710196015,-0.11154779194076545
1681320649558221000,1.945220947265625,-0.656495239007473,0.23054442031644284,-0.10912831884203478
1681320649568191000,1.95519091796875,-0.6680512367665767,0.2973960427094251,-0.02285533560970798
1681320649578161000,1.965160888671875,-0.5086357508361339,0.15462025101054458,0.11640120505499653
1681320649588131000,1.975131103515625,-0.06747662242352961,-0.029103673681057988,0.12971866866182535
1681320649598101200,1.985101318359375,0.252685890302062,-0.07175192512255162,0.02348060963489115
1681320649608071200,1.9950712890625,0.3994850557655096,-0.05634590087179094,-0.03429283982198685
1681320649618041000,2.005041015625,0.3416132970333099,-0.017552607825398445,-0.1830604558141902
1681320649628011000,2.015010986328125,0.010970306825637816,0.11576514477431774,-0.2534606375342235
1681320649637977300,2.024977294921875,-0.3239923001468181,0.360876106310077,-0.17928897445145994
1681320649647947500,2.034947509765625,-0.64021922698915,0.5021097466008737,-0.014940342967770992
1681320649657917400,2.04491748046875,-0.6400666667759418,0.4834865869345143,0.15555532163726166
1681320649667887400,2.054887451171875,-0.5083002352714538,0.3930157136209309,0.25967932938598093
1681320649677857300,2.064857177734375,-0.3228875537753105,0.12488438037317245,0.42263964831642803
1681320649687827700,2.07482763671875,0.3333890740454197,-0.23104221377074718,0.43597880316525695
1681320649697797600,2.084797607421875,1.2415636566609143,-0.5518805068660527,0.11302273246468976
1681320649707767600,2.094767578125,1.631727341851592,-0.587459623638913,-0.2984076309047639
1681320649717737500,2.104737548828125,1.478871360567212,-0.26935265520364043,-0.5645942598255351
1681320649727707400,2.114707275390625,0.9056927026718854,0.1566393722806126,-0.5861801782876253
1681320649737677600,2.124677490234375,-0.05740998643934726,0.4968253399245441,-0.4765102816484868
1681320649747647500,2.1346474609375,-0.6416495520532131,0.47691279803477227,-0.12474877129476517
1681320649757617400,2.144617431640625,-0.696566552633047,0.14126578899472952,0.16145444441214202
1681320649767587300,2.15458740234375,-0.4428577490240335,-0.2357025337319821,0.18395941394791007
1681320649777557200,2.16455712890625,-0.19854279670417307,-0.46064299656152724,0.0739404846753925
1681320649787527700,2.174527587890625,0.02069558202624321,-0.48965829783938825,-0.014599384042993187
1681320649797496600,2.18449658203125,0.26615035203099247,-0.28261355718448755,-0.18211546658165753
1681320649807466500,2.194466552734375,0.11598784761428832,-0.04149878914542496,-0.29008462371751664
1681320649817436400,2.2044365234375,-0.3050935384094715,0.11548282070159911,-0.2543194828532636
1681320649827406300,2.21440625,-0.5703799670875073,0.0848877028863877,-0.12086195645667612
1681320649837376500,2.22437646484375,-0.4866916300535202,-0.07927892309390008,-0.036961803302913904
1681320649847346400,2.234346435546875,-0.2246580656915903,-0.19353139828294513,-0.010359335320442914
1681320649857316600,2.244316650390625,0.02359656416475773,-0.19451953253746032,-0.009614508302509784
1681320649867286500,2.25428662109375,0.15880407603383062,-0.2469245502963662,-0.049456177890673275
1681320649877256400,2.26425634765625,0.12553659720420837,-0.27841858971267935,-0.1446943752039224
1681320649887226600,2.2742265625,-0.057617491710186,-0.13073537142369895,-0.26164427278339863
1681320649897196500,2.284196533203125,-0.5736550432354212,0.05445544748269021,-0.29321693039387464
1681320649907166500,2.29416650390625,-1.2975205216825008,0.1648094539284706,-0.0972904536679387
1681320649917136400,2.304136474609375,-1.3758867869108915,0.1083916568642482,0.17876330660954118
1681320649927106300,2.314106201171875,-0.8776134401351213,0.0018557839345186948,0.18781557791940867
1681320649937076500,2.324076416015625,-0.35498014360666275,-0.10168510843031107,0.20482005034275352
1681320649947046400,2.33404638671875,-0.007758943563699722,-0.26206790502294897,0.19111783433519303
1681320649957016600,2.3440166015625,-0.029968437284231184,-0.3080497213339433,0.08652516789510846
1681320649966986500,2.353986572265625,-0.14625205297470092,-0.17927344808876514,-0.009346505016088484
1681320649976956400,2.363956298828125,-0.1514028598666191,-0.13224299950767307,-0.12053601243793964
1681320649986926600,2.373926513671875,-0.15578326690793037,-0.2214939391048625,-0.15065467184782028
1681320649996896500,2.383896484375,-0.3095756522595882,-0.251012294534035,-0.09421703757196664
1681320650006866400,2.393866455078125,-0.31419805136322976,-0.22445468860659748,-0.02575403445959091
1681320650016836400,2.40383642578125,-0.3503554064154625,-0.22717052343655375,0.017807459369301795
1681320650026806500,2.413806640625,-0.3982207349181175,-0.28854550451673566,0.10667992104291915
1681320650036776400,2.4237763671875,-0.3754080146074295,-0.3203000215001404,0.12067761286571621
1681320650046746400,2.433746337890625,-0.29057459919154643,-0.2556953377837315,0.04927198043018579
1681320650056715500,2.443715576171875,-0.2824754638880491,-0.20542766084708272,-0.051270899162441486
1681320650066685400,2.453685546875,-0.3744306940078735,-0.23813911322914064,-0.05154606284201145
1681320650076655400,2.4636552734375,-0.3904465937852859,-0.2823956035848707,-0.01018061775267124
1681320650086625500,2.47362548828125,-0.21751345463395116,-0.2672122821740806,0.00022226444855332373
1681320650096595500,2.483595458984375,0.00874853912293911,-0.19967154500577597,-0.011635931127518415
1681320650106565400,2.4935654296875,0.016823124507069586,-0.15584376492351293,-0.005864508119225502
1681320650116535600,2.50353564453125,0.028494857600331304,-0.16159823679700494,-0.0018069032914936542
1681320650126505500,2.51350537109375,0.09200666804611682,-0.24509605622757225,-0.046558629818260665
1681320650136475600,2.5234755859375,0.04265431585609913,-0.2994926496624946,-0.07847410951703786
1681320650146445600,2.533445556640625,-0.004206219518184662,-0.3020215470856055,-0.10579100937917828
1681320650156415500,2.54341552734375,-0.03653846332430839,-0.33188805836532265,-0.05394610972106456
1681320650166385400,2.553385498046875,-0.09163783473372458,-0.31887042708843943,-0.023916297638416288
1681320650176355300,2.563355224609375,-0.3193231392920017,-0.2524991538246162,-0.06828691589310765
1681320650186325500,2.573325439453125,-0.5615034176707268,-0.07779628332071006,-0.08447481123656034
1681320650196295400,2.58329541015625,-0.6746177556753158,0.033378574521280825,-0.07166735211163759
1681320650206265300,2.593265380859375,-0.652906859126687,0.010032733714580536,-0.08272343752458691
1681320650216235500,2.603235595703125,-0.7759019551545381,-0.07859415570013224,-0.05249035795480013
1681320650226205700,2.613205810546875,-0.7470557998985051,-0.07384498841166495,-0.007531272287666797
1681320650236175600,2.623175537109375,-0.5021978267431259,-0.027640944184735415,-0.009881780936568975
1681320650246145500,2.6331455078125,-0.5456213734060525,0.03424867188669741,-0.06858706788346171
1681320650256115500,2.643115478515625,-0.7037719539672136,0.23552735982816664,-0.09033698126822709
1681320650266085400,2.65308544921875,-0.5564642544597387,0.23795243155062198,-0.05477905341386795
1681320650276055600,2.6630556640625,-0.496214660680294,0.07980448133796453,-0.012220599147677421
1681320650286025500,2.673025390625,-0.4370183753460645,-0.01936791361905634,0.005431961920857429
1681320650295995400,2.682995361328125,-0.45601942841410636,-0.048001412505097686,-0.026697745050489902
1681320650305965300,2.69296533203125,-0.585166032809019,-0.10087065024226903,-0.09906915377825498
1681320650315934500,2.7029345703125,-0.6836895354032516,-0.06171239634100347,-0.17155863592773674
1681320650325904400,2.712904296875,-0.7616764459252358,0.0067697133306413885,-0.18796938024163246
1681320650335874600,2.72287451171875,-0.8300006250888109,0.01729691603127867,-0.19430559752583504
1681320650345844500,2.732844482421875,-0.8663947115063667,-0.032614239085279405,-0.20092384662181137
1681320650355814400,2.742814453125,-0.8990408435672521,-0.09347031085789204,-0.1937470868602395
1681320650365784300,2.752784423828125,-0.8568833713173866,-0.13074008413143456,-0.15222937381863594
1681320650375754500,2.76275439453125,-0.8735393225640058,-0.058912828750349575,-0.1910480570346117
1681320650385724700,2.772724609375,-0.8992588702321052,-0.029876484684459862,-0.10203881723880767
1681320650395694600,2.782694580078125,-0.7364473121225833,-0.008480718499608337,0.011219605411589145
1681320650405664500,2.79266455078125,-0.5863491051137447,0.006511683448962867,-0.0054614802762866016
1681320650415634400,2.802634521484375,-0.4176835602790117,-0.060659928146004675,0.012364683793485164
1681320650425604600,2.8126044921875,-0.30415947242975233,-0.18470069730188696,0.014670914909243583
1681320650435574500,2.822574462890625,-0.4704349072575569,-0.1951965184835717,-0.07078355501443147
1681320650445544400,2.83254443359375,-0.49814650552570816,-0.13225417848881332,-0.10571750575155019
1681320650455514400,2.842514404296875,-0.4858306293100118,-0.012202807762660086,-0.13815642480254173
1681320650465484300,2.852484375,-0.6000877076089381,0.05956095392815768,-0.14104980815649032
1681320650475454500,2.862454345703125,-0.7449842543214559,0.03239507990926504,-0.02352583701610565
1681320650485424600,2.872424560546875,-0.839970814961195,-0.09171415137294679,0.11277853017896414
1681320650495394600,2.88239453125,-0.9656687402069568,-0.16934435741174966,0.21151655230671165
1681320650505364500,2.892364501953125,-0.7696510780662298,-0.0821988291285932,0.19368600432276725
1681320650515334400,2.90233447265625,-0.47075054907798763,0.11011384101435541,0.12479863831847905
1681320650525304600,2.9123046875,-0.17253157261312008,0.18892715589050202,0.10133066896945238
1681320650535274500,2.9222744140625,-0.15308745195269582,0.23180136157497763,0.05134527957290411
1681320650545244400,2.932244384765625,-0.02739011122882366,0.1712873264393769,0.06027355917692184
1681320650555214300,2.94221435546875,-0.16006372070610522,1.168220041900128,-1.4952102086886763
1681320650565184500,2.9521845703125,-2.1058681178897616,-1.0257869626916944,0.6431847987964749
1681320650575154400,2.962154541015625,3.4281425570786,-1.3452234992302954,-0.46258974671512837
1681320650585124600,2.97212451171875,-1.2903256417423485,0.8067944484811276,-0.33600013332664963
1681320650595093500,2.982093505859375,-1.672507680529356,0.3516339749839157,-0.08440729895830154
1681320650605063400,2.9920634765625,-1.0174012655317783,-0.10982479493990539,-0.19378975695818662
1681320650615033300,3.002033447265625,-0.0787356830626726,-0.25251404086649415,-0.689809771849215
1681320650625003500,3.01200341796875,-0.1937888801753521,-0.48873475325368343,0.28612317274063825
1681320650634972700,3.02197265625,-0.49652679536938665,0.4095017151281237,-0.20840835715830325
1681320650644942800,3.03194287109375,-0.7554588865846396,0.27464250524006784,0.01768470977246761
1681320650654912800,3.041912841796875,-0.5615419961154461,-0.04468611394464969,-0.06020604689866304
1681320650664882700,3.051882568359375,0.13803659781515598,-0.5112593773379922,0.10202771132290363
1681320650674852600,3.0618525390625,-0.3140226947963238,0.008455839786678552,-0.02424304537475109
1681320650684822800,3.07182275390625,0.1950561236321926,-0.04680135253295302,0.010348960056900978
1681320650694792700,3.081792724609375,0.2433066520601511,-0.09785451729148625,-0.16554332116097212
1681320650704762600,3.0917626953125,0.22127076134085655,-0.1081357458744198,-0.07850742726475
1681320650714732500,3.101732666015625,0.1549807183533907,0.11288001779206097,0.06338233884721994
1681320650724702700,3.11170263671875,-0.013813421297073364,0.38185543718114495,0.1429690857812762
1681320650734673000,3.1216728515625,-0.11393792934715748,0.507056445755437,0.1344406191498041
1681320650744642800,3.131642822265625,0.0012906243324279784,0.3830946966525167,0.1337479607105255
1681320650754612700,3.14161279296875,0.11298632771074771,0.15100033434717916,0.32098873441666365
1681320650764582700,3.151582763671875,0.4213350685238838,0.6371439111970365,0.39696255155056714
1681320650774552600,3.161552490234375,0.4877227266669273,1.100944641137123,-0.2322217789441347
1681320650784522800,3.171522705078125,0.582467295244336,0.4541301075361669,-0.45843496512323617
1681320650794492700,3.18149267578125,1.2542442745357751,0.10319418868585489,-0.3801253985181451
1681320650804462600,3.191462646484375,1.3079770337671042,0.09748195765204727,-0.635289953893423
1681320650814432500,3.2014326171875,0.3544277704209089,0.528375785703212,-0.656452276648581
1681320650824402700,3.211402587890625,-1.0200736996114252,1.3697580748975275,-0.8130728711634874
1681320650834372900,3.221372802734375,-0.8476894265145063,1.1490353758934884,-0.7234001990228891
1681320650844341800,3.231341796875,-0.5997691431790589,0.9131770670779049,-0.5097904738292097
1681320650854311700,3.241311767578125,-0.05132745165526867,0.6677399788603187,-0.4356064627215266
1681320650864281600,3.251281494140625,0.7755494884550571,0.21695647833831608,-0.28992402632832526
1681320650874251500,3.26125146484375,0.8560118491798638,-0.29185134112909433,-0.03839344354122877
1681320650884221700,3.2712216796875,0.19452128610312938,-0.7116151417482643,0.1806754238411784
1681320650894191600,3.281191650390625,-0.179445297524333,-1.0093529105674475,0.2403255904227495
1681320650904161800,3.291161865234375,0.2550087802916765,-1.08727756950818,0.15213000509738922
1681320650914131700,3.301131591796875,0.8486854518145323,-1.0138499297257513,0.02194821243584156
1681320650924101600,3.3111015625,-0.0631336247831583,-1.0570224242370576,0.10499474443495273
1681320650934071800,3.32107177734375,0.2309936984539032,-0.4735715978480875,0.5844818499371409
1681320650944041700,3.331041748046875,0.935494551217556,-0.7033155885018408,0.6689651367411017
1681320650954011600,3.34101171875,1.6876818687856197,-1.0033516243260354,0.7930544577464461
1681320650963981600,3.350981689453125,2.470170801115036,-0.5194198874399065,0.16146131254434584
1681320650973951500,3.360951416015625,1.6103642358273267,-0.3542763792514801,-0.03552928628176451
1681320650983921700,3.370921630859375,-0.25881109518408774,-1.0044970680341123,-0.03632262861654162
1681320650993891800,3.380891845703125,-0.2230757649362087,-1.0665655478037892,-0.2255196509569883
1681320651003861800,3.39086181640625,0.020220950251817704,-0.6764236360535025,-0.40919615631029005
1681320651013831700,3.400831787109375,0.06255377906858921,-0.41648145448025314,-0.24832316504791377
1681320651023801900,3.4108017578125,0.007640870141983031,-0.12805033359080553,-0.18213526726067064
1681320651033771800,3.420771728515625,0.21379472637176514,0.0005845949549227953,-0.0791784583941102
1681320651043741700,3.43074169921875,0.40676819851100443,-0.07235289582354017,-0.09650134911686181
1681320651053711600,3.440711669921875,0.019191607204079628,-0.09946027198769151,-0.03679652973860502
1681320651063681500,3.450681640625,-1.0940028591752051,-0.0843516963135451,-0.03898848682492971
1681320651073651700,3.460651611328125,-4.0618203996002675,-0.05172812314433977,-0.460202413187176
1681320651083621600,3.47062158203125,-4.377422472542524,-0.00584505450008437,-0.4304634007446468
1681320651093591800,3.480591796875,-1.1215057831287383,-0.025923883734317494,-0.08071604322493076
1681320651103561700,3.490561767578125,1.1501222212821245,-0.1278919829576276,0.28587416641563174
1681320651113531600,3.50053173828125,1.6518763959109781,-0.327987178469263,0.615860446280241
1681320651123500500,3.51050048828125,1.2427630955785511,-0.48680634247437116,0.695976989242062
1681320651133470700,3.520470703125,0.0656254415988922,-0.3229904296278953,0.26638518370017406
1681320651143440600,3.530440673828125,-1.3629916495025156,0.22020873986622316,0.04941343472748994
1681320651153410600,3.54041064453125,-1.6871557990849018,0.48280178300812837,0.40093963848799463
1681320651163380700,3.550380615234375,0.8933259730517864,0.6209915986236184,0.3820290401823818
1681320651173350700,3.5603505859375,1.8125111945033072,0.3096883919190615,0.4080569231472909
1681320651183320800,3.57032080078125,-0.10617314056456088,0.24699100312869995,0.26186237251348793
1681320651193290800,3.580290771484375,-1.6106237635463476,0.41129407843761145,-0.4042490552969277
1681320651203260700,3.5902607421875,-0.6232815361917019,0.4215148455375805,-0.6077200291182846
1681320651213230600,3.600230712890625,0.5221370374441147,0.15872998788431286,-0.25966588538251817
1681320651223200800,3.61020068359375,0.24390169534385203,0.03365819518025964,-0.008390519465506075
1681320651233170700,3.620170654296875,-0.3096943102031946,0.1187649841774255,-0.03269172476828098
1681320651243140600,3.630140625,-0.08850362836122512,0.1407367784182541,-0.028769363692775368
1681320651253110500,3.640110595703125,-0.15498422548472882,0.09108399111009202,-0.011461962800100445
1681320651263080700,3.650080810546875,-0.2203828725904226,0.07304051276152022,0.0034717677637934683
1681320651273051000,3.66005078125,0.26526304780244825,0.12523168684034608,-0.07056867015473545
1681320651283020800,3.670020751953125,0.14886194321215152,0.15189969433969816,-0.05300217993445694
1681320651292990700,3.67999072265625,-0.20120412486791608,-0.022334444407606496,-0.011776435576751827
1681320651302960600,3.689960693359375,-0.5816103861540556,-0.06967701854463666,0.04172821398712694
1681320651312930600,3.6999306640625,-0.04522971930205822,-0.05220479161222465,-0.010493775355070829
1681320651322900700,3.709900634765625,0.7362345461547374,-0.046478842580318445,-0.09181801360622048
1681320651332870700,3.71987060546875,0.4292074093341827,-0.041780346033163364,-0.09127703859731555
1681320651342840600,3.729840576171875,0.27885376625955105,-0.060563920425623655,-0.09985694315508008
1681320651352810500,3.739810546875,0.21790976047515867,-0.04925986986728385,-0.08154036521986126
1681320651362780700,3.74978076171875,-0.004693710774183273,-0.06197723955595866,-0.040349472979828716
1681320651372750800,3.759750732421875,-0.2098749225795269,-0.06339423021441325,0.0035514088712632653
1681320651382720800,3.769720703125,-0.3312976547241211,-0.060699419906176624,0.027809724880382417
1681320651392690700,3.779690673828125,-0.2156511678934097,-0.05122619237103499,-0.005246010894700884
1681320651402660600,3.78966064453125,-0.11828268055319785,-0.043979819705663246,-0.03607230711728334
1681320651412629500,3.79962939453125,-0.06835515882372856,-0.05133400926021859,-0.01841521600410342
1681320651422599700,3.809599609375,0.06705401309728622,-0.05098570727920159,-0.019707520836964247
1681320651432569900,3.81956982421875,0.05567980164587497,-0.048289746193494645,-0.009119929718598723
1681320651442539800,3.829539794921875,-0.011640168911218643,-0.06462497758576646,-0.029214623242244123
1681320651452509700,3.839509765625,0.08958791646659374,-0.12251283806939609,-0.038604529008641836
1681320651462479600,3.849479736328125,0.027387773141264914,-0.23234409014955162,-0.0015397037226706743
1681320651472449800,3.85944970703125,-0.03329670492410659,-0.33718291337043044,0.10967749542370438
1681320651482419700,3.869419677734375,0.09484510634243488,-0.38118111811615524,0.3014174071799964
1681320651492389600,3.8793896484375,0.20678338630497453,-0.3268396158693358,0.259123449068889
1681320651502359600,3.889359619140625,0.30790158156752584,-0.14381944639976135,0.03523673307597637
1681320651512329500,3.89932958984375,0.28257366356551644,0.09192395819872617,-0.1748932602431625
1681320651522299600,3.909299560546875,0.14767887090742587,0.22712264744052663,-0.27245054815374314
1681320651532269800,3.919269775390625,0.2733791342407465,0.3724827017452568,-0.2409121946716681
1681320651542239700,3.92923974609375,0.8485966044872999,0.19560489835506303,-0.42651057146564125
1681320651552209700,3.939209716796875,1.5036673636496065,0.03422775696283206,-0.3747999291790649
1681320651562179800,3.949179931640625,1.4235183066576718,-0.1338805923805572,-0.1777557370021939
1681320651572149800,3.959149658203125,1.0616577558875084,-0.32960239511355754,0.09610834947759285
1681320651582119700,3.96911962890625,0.4766740939080715,-0.5116615283980965,0.46124468878172337
1681320651592089600,3.979089599609375,-2.705277195584774,-0.4821626813869923,0.8973517214365303
1681320651602059500,3.9890595703125,0.03622866672277451,-0.35126207293160255,0.5146301689453423
1681320651612029700,3.99902978515625,4.369438488051295,-0.3460741488996893,0.25784849722962827
1681320651621999600,4.00899951171875,-0.059444707137346266,0.8102217195160687,-0.2998864347530529
1681320651631969800,4.0189697265625,2.4916473043859004,1.1875989883698523,-1.1834481523007154
1681320651641940500,4.0289404296875,-0.9438912081629037,-0.29750385046545413,-0.337574396906048
1681320651651910400,4.038910400390625,-0.6133534318953752,-0.050008386679645626,-0.08058306449502706
1681320651661880300,4.04888037109375,0.12450900772213935,-0.054392127322359006,0.03857380051023792
1681320651671850200,4.058850341796875,-0.023184476232528686,-0.058621024463232606,0.034226752315834164
1681320651681820400,4.0688203125,0.024699556970596313,-0.052894490909436716,0.026870818328764288
1681320651691790300,4.078790283203125,0.02305354332923889,-0.055275828521442597,0.025351426741760223
1681320651701760300,4.08876025390625,0.01317746148109436,-0.054830989097082054,0.030120673270453698
1681320651711730200,4.098730224609375,0.020059622210264205,-0.05074317179417703,0.032162531528715045
1681320651721699300,4.10869921875,0.014373977789282798,-0.053818665682803836,0.02352388252103701
1681320651731669500,4.11866943359375,0.01781681171953678,-0.05446308736645151,0.018275442207232116
1681320651741639400,4.128639404296875,0.014524784436821937,-0.05253959022427443,0.01564115731404163
1681320651751609300,4.138609375,0.00838905816078186,-0.054300110790506,0.029402528763469306
1681320651761579300,4.148579345703125,0.013626374292373657,-0.059260126084368675,0.02801745391350705
1681320651771549200,4.158549072265625,0.013027823877334595,-0.05202375878978055,0.023944610417447984
1681320651781519400,4.168519287109375,0.02305354332923889,-0.05193197515336796,0.025775058981310574
1681320651791489300,4.1784892578125,0.01272913319170475,-0.05347945119054057,0.026009557290351946
1681320651801459200,4.188459228515625,0.013927987587451934,-0.06153698497517034,0.01635473067718558
1681320651811429400,4.198429443359375,0.015576339316368102,-0.055832119830488226,0.012583824703190475
1681320651821399300,4.2083994140625,0.007348024675250053,-0.04957542948932386,0.022131487447721882
1681320651831369500,4.218369384765625,0.022611644780635834,-0.05559828824172727,0.02441970341617707
1681320651841339400,4.22833935546875,0.014532383221387862,-0.056988833851250816,0.01805926957274787
1681320651851309300,4.238309326171875,0.017376082214713096,-0.050792910953727545,0.028641170735843477
1681320651861279200,4.248279296875,0.01154138471186161,-0.06206565762492828,0.019709210470551623
1681320651871249200,4.258249267578125,0.013187982875108717,-0.0578438021461945,0.02408895992473699
1681320651881219300,4.26821923828125,0.0166308168053627,-0.05298118281220086,0.0208547774762148
1681320651891189200,4.278189208984375,0.015135609811544418,-0.04907853565074038,0.017845795785426163
1681320651901159200,4.2881591796875,0.004511924466490745,-0.04535797162449453,0.023669496970227917
1681320651911129300,4.29812939453125,0.009300912308692932,-0.05230916530215181,0.018636247476795688
1681320651921099500,4.308099609375,0.011696867534518242,-0.04719169899083208,0.013708801011973991
1681320651931069400,4.3180693359375,0.01244505555331707,-0.041666588026960376,0.021842290676222183
1681320651941039400,4.328039306640625,0.019479191973805425,-0.057170442062430084,0.025631814585719257
1681320651951009300,4.33800927734375,0.016935937231779098,-0.05128713791118934,0.024414634515414944
1681320651960979200,4.347979248046875,0.013345803785324096,-0.04474033291649539,0.017332544467085972
1681320651970949400,4.357949462890625,0.013047113099694252,-0.04802137301431503,0.016429581445106305
1681320651980919300,4.367919189453125,0.017836685463786126,-0.04724074859721586,0.015193728640372864
1681320651990889200,4.37788916015625,0.02412146482169628,-0.04751075661105569,0.018776441398775205
1681320652000859100,4.387859130859375,0.020530162331461904,-0.04509566285992041,0.020246084693074224
1681320652010829300,4.397829345703125,0.012449147206544876,-0.04430733462697826,0.02218670649998821
1681320652020799500,4.407799560546875,0.018287351840734482,-0.04845244877480436,0.012782479947293177
1681320652030768400,4.417768310546875,0.014847440519928931,-0.04816106917937286,0.01491607160961721
1681320652040738300,4.42773828125,0.017242226701974867,-0.04939484875802882,0.011322910522436723
1681320652050708200,4.437708251953125,0.013949614897370337,-0.04393791222611908,0.029233067647810092
1681320652060678100,4.44767822265625,0.01320142687857151,-0.05103580263177864,0.021269454657752065
1681320652070648300,4.4576484375,0.013950783941149712,-0.05140124297726433,0.022535780232562683
1681320652080618500,4.467618408203125,0.012455576947331428,-0.04267707111060153,0.024392166955280115
1681320652090588400,4.47758837890625,0.009162380620837211,-0.04513478016075678,0.01983555853026919
1681320652100558300,4.487558349609375,0.010958616387844086,-0.04336350073849316,0.023678799088113007
1681320652110528300,4.4975283203125,0.014401450318098067,-0.05715951880961656,0.022473460152652114
1681320652120498400,4.50749853515625,0.011409867286682128,-0.054193444678792724,0.0191175875532208
1681320652130468400,4.51746826171875,0.015301614028215407,-0.04937303878501988,0.023232274596742354
1681320652140438300,4.527438232421875,0.014253566280007362,-0.05002211381089873,0.02335044391658157
1681320652150408200,4.537408203125,0.018444003707170486,-0.04308327729131561,0.017385735959047452
1681320652160378000,4.547378173828125,0.020389877077937126,-0.037690592501498754,0.011455724855558945
1681320652170348300,4.557348388671875,0.01799509089589119,-0.04180940773086622,0.008638840803923084
1681320652180318500,4.567318359375,0.02487783614695072,-0.0472317022076575,0.018894204293237998
1681320652190288400,4.577288330078125,0.010962123519182205,-0.037771288488316346,0.012513974337372929
1681320652200258300,4.58725830078125,0.01994096426665783,-0.03309250128862914,0.01735179259025026
1681320652210228200,4.597228271484375,0.01455342600941658,-0.041336575187882404,0.021015333766210825
1681320652220198400,4.607198486328125,0.00826923117339611,-0.05230760353272781,0.0178679893509252
1681320652230168300,4.617168212890625,0.018445172750949857,-0.04313143641513306,0.019346135612088255
1681320652240138200,4.62713818359375,0.01575111136138439,-0.04190594060763251,0.014163129783887415
1681320652250108200,4.637108154296875,0.01754968521595001,-0.045981108491518534,0.015522686600103043
1681320652260078300,4.647078369140625,0.017400632134079934,-0.03929257520488463,0.025122677753493187
1681320652270048300,4.65704833984375,0.01590542514026165,-0.04114911719122901,0.016972314586257562
1681320652280018400,4.667018310546875,0.0007920271605253219,-0.05321772238127887,0.012277836627094075
1681320652289988400,4.67698828125,0.010968553259968757,-0.0446424483328592,0.012590172245586291
1681320652299958300,4.686958251953125,0.02294073060452938,-0.04908265470343176,0.022115518127032555
1681320652309928400,4.696928466796875,0.016357845082879064,-0.03751142740915529,0.01835080899838358
1681320652319898400,4.7068984375,0.014414309799671171,-0.04742351671901997,0.01211080493053887
1681320652329868300,4.716868408203125,0.021897359031438825,-0.03493023810980376,0.025124020327208563
1681320652339838200,4.726838134765625,0.025489246043562886,-0.03717709002140909,0.01888754622358829
1681320652349808000,4.73680810546875,0.017259177836775778,-0.0486860703010112,0.012939305343665181
1681320652359777300,4.74677734375,0.016363105779886245,-0.041216661435528656,0.013804973129136488
1681320652369747500,4.75674755859375,0.01666355003118515,-0.0441713876218535,0.01559800315890461
1681320652379717400,4.76671728515625,0.01127776533961296,-0.044767481218324974,0.012154607539647259
1681320652389687300,4.776687255859375,0.019359364986419676,-0.048187582726962865,0.01714181223453488
1681320652399657200,4.7866572265625,0.017415829703211785,-0.04429381299170199,0.012515389976324513
1681320652409627100,4.796627197265625,0.013077508237957954,-0.03770264369889628,0.018837628967524504
1681320652419597300,4.806597412109375,0.018615268620848655,-0.04641622567288577,0.01812976839253679
1681320652429567200,4.816567138671875,0.019513678765296937,-0.04234610842345282,0.018947523649362846
1681320652439537400,4.826537353515625,0.019513678765296937,-0.04046115775995422,0.017383228908129968
1681320652449507300,4.83650732421875,0.024452304211258886,-0.04399651967871468,0.019174404907529242
1681320652459477500,4.8464775390625,0.014876082092523574,-0.04494618051978759,0.02365236317233648
1681320652469447400,4.856447509765625,0.014427753803133964,-0.042998503351002,0.02706203918508254
1681320652479417300,4.866417236328125,0.013382044142484664,-0.037703232787363226,0.015762030047620647
1681320652489387300,4.87638720703125,0.01188683714866638,-0.03995730445762165,0.005973905044142157
1681320652499357200,4.886357177734375,0.011138649129867553,-0.04103803519930225,0.019595781257911584
1681320652509327400,4.896327392578125,0.013383213186264037,-0.037843061383161694,0.0170631118419813
1681320652519297300,4.90629736328125,0.018921558091044424,-0.03405557416712399,0.01985577020123601
1681320652529267200,4.91626708984375,0.02161620400249958,-0.03951981722265482,0.019678486538724973
1681320652539237400,4.9262373046875,0.019970190361142157,-0.035375328695913776,0.01536079230296891
1681320652549207300,4.936207275390625,0.01772621082663536,-0.03617531996718608,0.020479071465041486
1681320652559177500,4.946177490234375,0.014134908336400985,-0.03911899503653403,0.007901018915511667
1681320652569147400,4.9561474609375,0.014882511833310127,-0.03358225300037302,0.017218530732556244
1681320652579117300,4.966117431640625,0.01159106907248497,-0.03505310187106952,0.007182248787442222
1681320652589087200,4.976087158203125,0.012039981883764267,-0.0286277997976169,0.009612855201540513
1681320652599057200,4.98605712890625,0.018325345763564108,-0.03374546247175895,0.01759807723520789
1681320652609027300,4.99602734375,0.017277298015356064,-0.028385826001595706,0.01293359712208621
1681320652618997200,5.005997314453125,0.020419687694311142,-0.03902594645821955,0.012098150944942607
1681320652628967200,5.01596728515625,0.019522446593642235,-0.0401779158052057,0.017216032814793288
1681320652638941200,5.025941162109375,0.01727788253724575,-0.03868432537973858,0.012931386898690833
1681320652648911400,5.035911376953125,0.020120997008681297,-0.03462125435902271,0.021573529337975194
1681320652658881300,5.04588134765625,0.01877367405295372,-0.0390225671910448,0.025017883938457816
1681320652668851200,5.055851318359375,0.01578033745586872,-0.031198855862021445,0.019091964488197118
1681320652678820000,5.065820068359375,0.01383621765077114,-0.037113450200669466,0.018307581778010354
