time,seconds_elapsed,z,y,x
1681147096121139500,0.015139404296875,-0.046778702309727666,-0.9729616736941039,-0.38727172660883513
1681147096131211500,0.02521142578125,-0.40796997551620007,-0.7464087341666221,-0.41478864255510267
1681147096141282600,0.035282470703125,-0.4812748657017946,-0.382604063591361,-0.36375378063824026
1681147096151354600,0.045354736328125,-0.39308980177044867,-0.11369184563159943,-0.2749606860774569
1681147096161425700,0.05542578125,-0.2630126385271549,-0.04807882512286305,-0.1903829624556936
1681147096171497500,0.06549755859375,-0.15025193626582622,-0.032100480876863,-0.1428448748797178
1681147096181568500,0.075568603515625,-0.11705752267241477,-0.007465659705549478,-0.07291943453196435
1681147096191640600,0.085640625,-0.09103227005600929,0.04792144260406494,-0.10788290362451225
1681147096201711600,0.095711669921875,-0.13504501478374004,0.05279372481554746,-0.23112174528036264
1681147096211783700,0.10578369140625,-0.14559329680502414,0.001142594163864851,-0.3218540094764903
1681147096221854700,0.115854736328125,-0.015365911436080931,0.0332704014390707,-0.2775161609802395
1681147096231925800,0.12592578125,0.15735153913795946,0.04289163174331188,-0.0768139029535465
1681147096241997800,0.135997802734375,0.3132365128546953,0.10702683478444815,0.13127549704923294
1681147096252067800,0.14606787109375,0.3217629336595535,0.19271672089919448,0.1846801294378936
1681147096262140000,0.156139892578125,0.28521920963823794,0.23052096637561917,0.0861112076662015
1681147096272211000,0.1662109375,0.21796002935767173,0.21376783836483954,0.04435215101623907
1681147096282282800,0.17628271484375,-0.03494388760924339,0.15925941858589648,0.08287903907825238
1681147096292353800,0.186353759765625,-0.4291162239193916,0.18188801450133324,0.1099149757076986
1681147096302425900,0.19642578125,-0.7173059738010168,0.27325331590399143,0.13139547930024564
1681147096312497000,0.206496826171875,-0.7318371879786253,0.38785979216247796,0.1443259802829474
1681147096322568000,0.21656787109375,-0.5137035556197166,0.4615753089755773,0.15764420194160192
1681147096332640000,0.226639892578125,-0.19609891068339347,0.47158553859740493,0.20610826352238654
1681147096342711000,0.2367109375,0.05543488697409629,0.4063319990508258,0.29824171801963817
1681147096352782800,0.246782958984375,0.15864625512361524,0.32861747572943567,0.3196782363399863
1681147096362854000,0.25685400390625,0.2602268072009086,0.302061915628612,0.305133559892606
1681147096372926000,0.266926025390625,0.34223464380204677,0.26355419805794955,0.2626851053395308
1681147096382996700,0.276996826171875,0.32179975853860376,0.22812091949656604,0.18131839791983365
1681147096393069000,0.287069091796875,0.23036942907571792,0.13459098740592598,0.09052048460897058
1681147096403139800,0.297139892578125,0.03700783440172672,0.026016484788060186,0.04736758071412332
1681147096413212000,0.3072119140625,-0.1562701736420393,-0.10040610147044061,0.011167491631861776
1681147096423283000,0.317282958984375,-0.20633973419070242,-0.1302624566823244,0.0070392144544050095
1681147096433354000,0.32735400390625,-0.1161369006961584,-0.09760112705230713,0.017178860875871033
1681147096443425800,0.33742578125,-0.05244447298645973,-0.004109627275913953,0.05291563416216522
1681147096453496800,0.347496826171875,-0.09711012866497039,0.06442454137653111,0.04955978439562023
1681147096463569000,0.35756884765625,-0.2372200256228447,0.10105842789933085,0.01357212335448712
1681147096473640000,0.367639892578125,-0.3603261808097362,0.08563128779530525,-0.15149115920457987
1681147096483712000,0.3777119140625,-0.4139619094073772,0.019204174424707888,-0.29768077793493863
1681147096493783000,0.387782958984375,-0.373428238967061,-0.07688684032559394,-0.40134993632193655
1681147096503855000,0.397855224609375,-0.1979921770840883,-0.19585516505539416,-0.4055770524976775
1681147096513926100,0.407926025390625,0.03769230953454971,-0.29050065717250106,-0.34996969503350556
1681147096523998000,0.417998046875,0.20125322470664977,-0.360964478713274,-0.24229442454399538
1681147096534068700,0.42806884765625,0.21109949593842028,-0.37014556403458115,-0.16203184244129806
1681147096544139800,0.438139892578125,0.16325579474568366,-0.2780158541306853,-0.15404040529597549
1681147096554211800,0.4482119140625,0.007055179208517074,-0.1827694735109806,-0.214442431424465
1681147096564283000,0.458282958984375,-0.2203437096238136,-0.1459818577311933,-0.20032246492886915
1681147096574355000,0.46835498046875,-0.3604296411842108,-0.1706646096974611,-0.22487822951460257
1681147096584426000,0.478426025390625,-0.4189338526010513,-0.2069613732203841,-0.2931740593665279
1681147096594497800,0.488497802734375,-0.3894850552767515,-0.24528598930910228,-0.316582900673151
1681147096604568800,0.49856884765625,-0.2882838579058647,-0.2599173028603196,-0.3982383436400443
1681147096614641000,0.508640869140625,-0.17718202876746653,-0.3300206205256283,-0.4231606034506112
1681147096624712000,0.5187119140625,-0.0867874720931053,-0.40540202472433445,-0.43420602133907377
1681147096634784000,0.528783935546875,-0.03180383601784706,-0.4104737750306725,-0.38757505693696437
1681147096644855000,0.53885498046875,0.042166824600100516,-0.38954073098674413,-0.304719773193635
1681147096654927000,0.548927001953125,0.13660042753219603,-0.29816622336432336,-0.2186422029355541
1681147096664998000,0.558997802734375,0.22681670503020285,-0.25318214938640593,-0.11240752317579462
1681147096675069000,0.56906884765625,0.3205266698628664,-0.28272534699589014,0.01151884408649057
1681147096685140700,0.579140625,0.23673721054196356,-0.38368572134822604,0.04151281767077744
1681147096695211800,0.589211669921875,0.0754769735276699,-0.4298192576222121,-0.031415439488459374
1681147096705283800,0.599283935546875,0.009032032239437103,-0.35059432973787186,-0.06609945231880993
1681147096715355000,0.60935498046875,0.15758827050328253,-0.17674758287295697,-0.0043419381944462656
1681147096725427000,0.619427001953125,0.4178478109300136,-0.008453355568647384,0.15819469369752331
1681147096735498000,0.629498046875,0.5711982977330684,0.14956307721883058,0.32288558101393283
1681147096745570000,0.639570068359375,0.5691705912977457,0.228043616476655,0.4492452581040561
1681147096755641000,0.64964111328125,0.47680151968002316,0.2466186992175877,0.4840981429615989
1681147096765713000,0.659712890625,0.3788239605307579,0.19982874486148355,0.4901516343142837
1681147096775784000,0.669783935546875,0.24472528668642043,0.13795418022871017,0.4657432057773694
1681147096785854700,0.679854736328125,0.13526771762371062,0.12923136006891728,0.3915107889506966
1681147096795926800,0.6899267578125,0.09937398194372653,0.16841770755350588,0.35752339834868907
1681147096805997800,0.699997802734375,0.10243278499245644,0.21019918609783053,0.3283719765357673
1681147096816070000,0.71006982421875,0.0859516057908535,0.21607070847973225,0.2843313574204221
1681147096826141000,0.720140869140625,0.04729483513832092,0.17503201112672687,0.28151619040183723
1681147096836213000,0.730212890625,-0.03204407451450825,0.11170447120666503,0.26604897401574995
1681147096846284000,0.740283935546875,-0.09144435798823833,0.06448752361014486,0.18215817321222275
1681147096856355800,0.75035595703125,-0.21494038927555084,0.030921061833947897,0.06135740889087319
1681147096866427000,0.760427001953125,-0.34133389557003974,-0.021148878751695153,-0.03060198594741523
1681147096876499000,0.7704990234375,-0.37488077586293217,-0.02477291446775198,-0.10205777766760438
1681147096886570000,0.780570068359375,-0.31904724496006964,0.024245967984199524,-0.14296671116109935
1681147096896641000,0.79064111328125,-0.22767829029560088,0.07374971134364605,-0.11885284512396901
1681147096906713000,0.800713134765625,-0.06727963854670524,0.15606939037293194,-0.06878836260922253
1681147096916783900,0.810783935546875,0.06880524067878722,0.21713848384171722,0.008488317284174263
1681147096926855700,0.820855712890625,0.17878829492032527,0.250310831733793,0.0728394646309316
1681147096936926700,0.8309267578125,0.25385376503765583,0.24398572036549449,0.056461709271185094
1681147096946998800,0.840998779296875,0.2581073308289051,0.15402312536761165,-0.029954079965315756
1681147096957069800,0.85106982421875,0.18851298559904098,0.027353140219300985,-0.1211805208865553
1681147096967142000,0.861141845703125,0.10459726954996586,-0.08290595448464155,-0.1486679184773937
1681147096977213000,0.871212890625,0.1777583673506975,-0.08466317341551184,-0.13662077620048074
1681147096987285000,0.881284912109375,0.30465865412354465,-0.06006327742710709,-0.07796122809145599
1681147096997356000,0.89135595703125,0.4005243356853723,-0.03921294323056936,0.051588440679013726
1681147097007427000,0.901427001953125,0.4429939426243305,-0.021069529905170203,0.15269056158959865
1681147097017499000,0.911498779296875,0.4407733439654112,-0.04394274823144078,0.1845577451672405
1681147097027570000,0.92156982421875,0.3943663975775242,-0.05726137174889445,0.16197832215577362
1681147097037642000,0.93164208984375,0.31037060202956196,-0.06267360605597495,0.11272716531790793
1681147097047712800,0.941712646484375,0.20977496933639048,-0.02377075168788433,0.04645911496654152
1681147097057784800,0.951784912109375,0.11992577158510684,0.01753551056012511,0.012002682080678641
1681147097067856000,0.96185595703125,0.06315057591795921,0.07938260266408324,0.002825103890709579
1681147097077928000,0.971927978515625,0.051012394356727594,0.14037249341681599,0.020674575770832596
1681147097087999000,0.9819990234375,-0.01015840592086315,0.1701864707916975,0.024293643050827086
1681147097098070800,0.99207080078125,-0.07695113773345946,0.15672668523788452,0.024934607835486528
1681147097108141800,1.002141845703125,-0.1410328570216894,0.1467946354188025,0.014668028832413256
1681147097118214000,1.0122138671875,-0.09834171628654002,0.133361007219553,-0.044343511052057145
1681147097128285000,1.022284912109375,-0.046782793962955475,0.0942566389299929,-0.08430124476794153
1681147097138356000,1.03235595703125,0.034766777476668356,0.040093963848799465,-0.09972579105608165
1681147097148428000,1.042427978515625,0.08280746254622935,-0.03377484382987022,-0.15901939928494394
1681147097158499000,1.0524990234375,0.06129179630875587,-0.07508227512165903,-0.23931736322827635
1681147097168571000,1.06257080078125,-0.02884498621225357,-0.10731295824944972,-0.3035451033910736
1681147097178642000,1.072641845703125,-0.15755261466801165,-0.1345027246005833,-0.3095429190337658
1681147097188714000,1.0827138671875,-0.21096914755702018,-0.12829977830722927,-0.2759776628339663
1681147097198784800,1.09278466796875,-0.14772855526804923,-0.050976300130039454,-0.19539346582777797
1681147097208856800,1.10285693359375,-0.029694881039857863,-0.020048224033415316,-0.09623228638451546
1681147097218927900,1.112927978515625,0.09997954662144183,-0.009511486319452523,-0.011691058848239481
1681147097229000000,1.123,0.1680336766719818,-0.019111527705192564,0.021243315569497642
1681147097239071000,1.133071044921875,0.1622299588292837,-0.05146934434399009,-0.025523988563381134
1681147097249142500,1.143142578125,0.1070832411468029,-0.03296440422981977,-0.03846373229846358
1681147097259214600,1.153214599609375,0.018435235878825187,-0.03282309606298804,-0.047570108415745195
1681147097269285400,1.163285400390625,-0.02591711606681347,-0.06934899216666818,-0.014380955519340932
1681147097279357400,1.173357421875,-0.0656476534307003,-0.04151464430168271,-0.02493658059686422
1681147097289428500,1.183428466796875,-0.02671440392434597,-0.012577888152748346,-0.06733447400648146
1681147097299500500,1.19350048828125,0.018336451679468155,-0.006055062255263328,-0.03631418958175927
1681147097309571600,1.203571533203125,0.1028086325675249,0.05752747533917427,0.009840718273818492
1681147097319643400,1.213643310546875,0.15358780269026756,0.10569134839698671,0.04547547422405332
1681147097329714400,1.22371435546875,0.20289806930422782,0.14616495921313763,0.10277838355973362
1681147097339786500,1.233786376953125,0.15102175159454345,0.20362813714444636,0.1359095226585865
1681147097349857500,1.243857421875,0.06373392876386642,0.22285978409796953,0.12713486271370203
1681147097359928600,1.253928466796875,-0.004252981269359589,0.23252105415165422,0.07716032350473105
1681147097370000600,1.264000732421875,-0.0611205313950777,0.2614537186473608,0.05109795374833047
1681147097380071700,1.27407177734375,-0.02008943282663822,0.3097394645191729,0.10989990600273013
1681147097390143700,1.284143798828125,0.08600713537037372,0.3215029675491154,0.18851970760077236
1681147097400214500,1.294214599609375,0.20727555373609063,0.29896088087335226,0.2694534121643752
1681147097410286300,1.304286376953125,0.35258769551217556,0.2860447006769478,0.3008790259869769
1681147097420357400,1.314357421875,0.4566822762370109,0.3108141080133617,0.29294892710745335
1681147097430429400,1.324429443359375,0.44332244392633435,0.3240798322997987,0.26980854574497787
1681147097440500500,1.33450048828125,0.3573416120409965,0.33205782544165846,0.2536563427694142
1681147097450572500,1.344572509765625,0.293203194129467,0.31545360438227654,0.23733060985784976
1681147097460643600,1.3546435546875,0.26279344281852246,0.29498803171962495,0.32929647096954284
1681147097470715600,1.364715576171875,0.294572144395113,0.32498452605456113,0.42138614112399514
1681147097480786700,1.37478662109375,0.3717208505272865,0.33738281985670326,0.49335733502041546
1681147097490858500,1.3848583984375,0.4014759373217821,0.3481622802853584,0.525550901008211
1681147097500929500,1.394929443359375,0.41147301520109175,0.3607701251849532,0.5464912515757605
1681147097511000600,1.40500048828125,0.38378362876474853,0.3392782782144844,0.5035167638545855
1681147097521072600,1.41507275390625,0.3662298518955707,0.25753523002937434,0.43152942254096266
1681147097531143400,1.425143310546875,0.4402098648637533,0.17824995025992393,0.2691702478414401
1681147097541215700,1.4352158203125,0.5539005414515733,0.053869683483988046,0.0962481050081551
1681147097551286500,1.44528662109375,0.6555261017143726,-0.09986790294051169,-0.03140533821955323
1681147097561358300,1.4553583984375,0.7026981872558593,-0.22525252445340155,-0.05639142051395028
1681147097571429400,1.465429443359375,0.6955038918375969,-0.23745091176927088,-0.026546207750588652
1681147097581501400,1.47550146484375,0.6510580163896084,-0.14989377047792077,0.03479351935312152
1681147097591572500,1.485572509765625,0.5392565145492554,-0.0040641806989908215,0.04708886423744261
1681147097601644500,1.49564453125,0.4307821113049984,0.14212138291075824,0.08330280831512063
1681147097611715600,1.505715576171875,0.4109691573321819,0.24369740494340655,0.11854772469755262
1681147097621787600,1.51578759765625,0.46078035920560356,0.27098303288444875,0.16582498764656484
1681147097631858700,1.525858642578125,0.5506307260006665,0.21435309090688823,0.17624361540619282
1681147097641929700,1.5359296875,0.6315379078835248,0.11716902022287248,0.14556414377577603
1681147097652001500,1.54600146484375,0.6704764180868864,0.04185001373589039,0.1031319462377578
1681147097662072600,1.556072509765625,0.7209457916080951,0.06150573132038116,0.04286470720376819
1681147097672144600,1.56614453125,0.7255348729640245,0.12607581864744424,0.04822082740943879
1681147097682215400,1.57621533203125,0.7427128022581339,0.18083485218659043,0.08581000536307692
1681147097692287500,1.58628759765625,0.7095277410149574,0.14816504698917268,0.10894428577832876
1681147097702358500,1.596358642578125,0.6994155123233795,0.0692816260188818,0.1955333857551217
1681147097712430600,1.6064306640625,0.8449281451076268,-0.030982290501892565,0.3021964652610942
1681147097722501600,1.616501708984375,1.0354255825221539,-0.07898863491043448,0.3283270779481157
1681147097732573400,1.626573486328125,1.1604705968171358,-0.053674453172832724,0.2820778063399717
1681147097742644500,1.63664453125,1.1607324626237154,-0.04567702467814087,0.12030183835588396
1681147097752716500,1.646716552734375,1.044927570360899,-0.1054563705973327,-0.0808331667985767
1681147097762787600,1.65678759765625,0.8670131356656551,-0.22672274313643573,-0.1927897496027872
1681147097772858600,1.666858642578125,0.6910866599172353,-0.2768430109590292,-0.21980236928872762
1681147097782930700,1.6769306640625,0.5942962647259235,-0.23335648206248877,-0.15718816526979207
1681147097793001700,1.687001708984375,0.6030886429905891,-0.17852774428799748,-0.053854157121293246
1681147097803073500,1.697073486328125,0.7638380078732967,-0.11775193467736243,0.02962674770709127
1681147097813144300,1.707144287109375,0.962684171438217,-0.0299557239331305,0.055187122758105396
1681147097823216400,1.71721630859375,1.0840110419929028,0.02674289936646819,0.017634258226864038
1681147097833287400,1.727287353515625,1.0886182435274123,-0.024359072969853877,-0.0747039433285594
1681147097843359500,1.737359375,1.0038678302198647,-0.08887494589164853,-0.18772983586471526
1681147097853430500,1.747430419921875,0.8105793007820844,-0.11452625062912702,-0.32796226322371513
1681147097863502600,1.757502685546875,0.5747936918765306,-0.060051879250258206,-0.41514289935287085
1681147097873573600,1.76757373046875,0.34063130025863647,-0.024451281297951936,-0.3977458839479834
1681147097883645400,1.7776455078125,0.19980068781077862,-0.07194609598778187,-0.35564741187635807
1681147097893716500,1.787716552734375,0.2785620898365974,-0.12450330863371491,-0.3762668233938515
1681147097903788500,1.79778857421875,0.5188362423330545,-0.10722886016257106,-0.4472322377812117
1681147097913859600,1.807859619140625,0.7483207052677869,-0.05540931414142251,-0.4824230858888477
1681147097923930600,1.8179306640625,0.933493148267269,-0.025209406188875436,-0.39051348500903693
1681147097934002700,1.828002685546875,1.154597320869565,-0.034651626664400095,-0.2763455828309059
1681147097944073500,1.838073486328125,1.2634095777660608,-0.03551481936499476,-0.13246245094463227
1681147097954145500,1.8481455078125,1.117701714670658,-0.027165070301294326,-0.005096957812830805
1681147097964216600,1.858216552734375,0.9050310238927602,-0.016479571766406298,0.04811017010919749
1681147097974288400,1.868288330078125,0.6969219419419765,0.0875198780208826,0.035335882601514455
1681147097984359400,1.878359375,0.47060558764934535,0.20784955423176288,-0.08316453235559165
1681147097994431500,1.888431396484375,0.31651860326528547,0.3183455264315009,-0.16457608356401324
1681147098004502500,1.89850244140625,0.39670740774571894,0.4505944807559252,-0.15167670837193725
1681147098014574600,1.90857470703125,0.6692787327349186,0.5171707933388651,-0.09746710714278742
1681147098024645600,1.918645751953125,1.0325555800437927,0.5073085938856006,0.0320471432544291
1681147098034717400,1.928717529296875,1.4553408473759888,0.5792467257626355,0.12539603795604778
1681147098044788500,1.93878857421875,1.7656038973778485,0.6186081375531852,0.1612686029838398
1681147098054859500,1.948859619140625,1.8803256705790756,0.5447502896599471,0.17261170691093428
1681147098064931600,1.958931640625,1.7619821997493506,0.47294922816604373,0.20534696029368787
1681147098075002400,1.96900244140625,1.4846961211979388,0.4370080000825226,0.2293753948033787
1681147098085074400,1.979074462890625,1.3031442067831753,0.4998039173439145,0.1999859264508821
1681147098095145500,1.9891455078125,1.0080015690237283,0.5553654994376004,0.10451843216009438
1681147098105217500,1.999217529296875,0.6697066027581692,0.5843813121721149,0.13280605848422272
1681147098115288600,2.00928857421875,0.48448739800751206,0.6439838402196765,0.2581935660739429
1681147098125360400,2.0193603515625,0.5597247175604104,0.7920518565751612,0.3489041846938431
1681147098135431400,2.029431396484375,0.8269424065619707,0.9878956234537064,0.4015698992155492
1681147098145503500,2.03950341796875,1.185022854271531,1.1434659782633185,0.2821951491093263
1681147098155574500,2.049574462890625,1.4491829092681408,1.2292619551010429,0.13778819427834824
1681147098165646600,2.059646484375,1.3280144441455601,1.1695550898961722,0.11442392276581376
1681147098175717600,2.069717529296875,0.7515642172336577,1.0446840439286083,0.01819898172082612
1681147098185789700,2.079789794921875,-0.14036357945799827,0.927764979878813,-0.24966064246306194
1681147098195860700,2.08986083984375,-1.1274795968413351,1.0310499247211962,-0.580236394387111
1681147098205932500,2.0999326171875,-1.81662739765048,1.3598779013961553,-0.7618490990784019
1681147098216003600,2.110003662109375,-1.8417974947422742,1.6670258881174027,-0.672271192549169
1681147098226074400,2.120074462890625,-1.3621551986783742,1.7233096470057963,-0.4722126575198024
1681147098236146400,2.130146484375,-0.72362231734097,1.6531885014228522,-0.2328743428350426
1681147098246217500,2.140217529296875,-0.0680178896933794,1.4271616315960882,-0.04568484265841544
1681147098256289800,2.150289794921875,0.3506628649294376,1.0985103997275232,0.05600037536974996
1681147098266360600,2.160360595703125,0.3232172241210937,0.7206845103234052,0.1347516943929717
1681147098276432600,2.1704326171875,-0.27683599669635295,0.5329930702403187,0.19881620681807397
1681147098286503700,2.180503662109375,-1.2434791348934173,0.6366761475548148,0.15538886076286434
1681147098296575500,2.190575439453125,-2.0180641622304916,0.854666133659333,0.11332155101448296
1681147098306646500,2.200646484375,-2.3241578175932167,0.9937953490167856,0.1379727022660896
1681147098316718600,2.210718505859375,-2.1139210759639737,1.072409743787348,0.0936922099802643
1681147098326789600,2.22078955078125,-1.4551871181190013,0.9356763375252485,-0.031631584723480044
1681147098336861700,2.23086181640625,-0.5259013584136962,0.716945616056025,-0.24442374645657836
1681147098346932700,2.2409326171875,0.27219021671712396,0.4725359711900353,-0.40954040317069734
1681147098357004500,2.251004638671875,0.5041021990597248,0.16303426094949244,-0.38747930494491006
1681147098367075600,2.26107568359375,0.155489252397418,0.03586450958549976,-0.37687626052908596
1681147098377147600,2.271147705078125,-0.5589093095242976,0.07537555897980928,-0.3010943492380902
1681147098387218700,2.28121875,-1.2467910359203815,0.25689780890867114,-0.20833668016158044
1681147098397289500,2.29128955078125,-1.7324164980471133,0.4094615292482078,-0.10760858019515872
1681147098407361500,2.301361572265625,-2.034969704324007,0.5419746874667704,-0.11260963988546281
1681147098417432600,2.3114326171875,-2.0850386803507805,0.5328804036460817,-0.073479369969666
1681147098427504600,2.321504638671875,-1.8384815020620822,0.22930063080042598,0.010540683236718177
1681147098437575700,2.33157568359375,-1.3354068924844265,-0.21819106163457036,0.06438658398631959
1681147098447647500,2.3416474609375,-0.8139993383586406,-0.6040156947076321,0.15405235146209598
1681147098457718500,2.351718505859375,-0.470800233438611,-0.7311816466793417,0.19501107891406863
1681147098467790600,2.36179052734375,-0.06508008267581462,-0.5713539266861974,0.03239376473501324
1681147098477861600,2.371861572265625,0.43758536157906053,-0.3538626838840544,-0.19572598571777342
1681147098487933700,2.38193359375,0.881605140119791,-0.2221785238355398,-0.3475674561973661
1681147098498004700,2.392004638671875,1.1920704346954822,-0.17173267732039094,-0.39794706907588984
1681147098508076500,2.40207666015625,1.1026321558326482,-0.2495978611588478,-0.2831956313887611
1681147098518147600,2.412147705078125,0.44564416487216946,-0.27430063299983737,-0.11151917776763438
1681147098528219600,2.4222197265625,-0.7454974645406007,-0.13082856613248586,-0.05275920149143785
1681147098538290700,2.432290771484375,-1.881893358287215,0.13076017707139254,-0.0797030302574858
1681147098548362800,2.44236279296875,-2.7010423344939944,0.2909856642104685,-0.0026866087354719638
1681147098558433500,2.45243359375,-3.032413638976216,0.3384105554692447,0.09525116639267653
1681147098568504600,2.462504638671875,-2.8410481865555046,0.3829534615509212,0.2551486454200931
1681147098578576600,2.47257666015625,-2.264972053653002,0.37596857109963894,0.3298736132703721
1681147098588647700,2.482647705078125,-1.624576885575056,0.3686974110528827,0.27701354522034527
1681147098598719500,2.492719482421875,-1.1167395916402338,0.43264673613309856,0.11799842025171965
1681147098608790500,2.50279052734375,-0.8954875349998473,0.522755461603403,0.016493728155922142
1681147098618862600,2.512862548828125,-1.000946974337101,0.5560867994494736,-0.03579330751281232
1681147098628933600,2.52293359375,-1.2726608057141304,0.43767070177495476,0.07293141723070293
1681147098639005700,2.533005615234375,-1.4343874911963939,0.22347776986584067,0.22530794443506746
1681147098649076700,2.54307666015625,-1.367411219510436,0.09196282890439032,0.300560899948515
1681147098659148800,2.553148681640625,-1.1591162595987319,-0.003843085294216871,0.2204348219733685
1681147098669219800,2.5632197265625,-0.7750584900677203,-0.02668678526505828,0.04636095182169229
1681147098679291600,2.573291748046875,-0.07757423806786537,0.08517974463552236,-0.11243333347048609
1681147098689362400,2.583362548828125,0.7947825967133044,0.15482187452986834,-0.10751374151855707
1681147098699434500,2.5934345703125,1.2756330995231866,0.08366831715926527,0.08625391320567577
1681147098709505500,2.603505615234375,1.0137135169297455,-0.06476195663735271,0.3007952201610431
1681147098719577600,2.61357763671875,0.07862637746930122,-0.18041048929467796,0.2356714079413563
1681147098729648600,2.623648681640625,-0.9049714026600122,-0.03217968359291553,-0.02199216117542237
1681147098739719700,2.6337197265625,-1.4740999083817004,0.15359277112632988,-0.17304723051767795
1681147098749791700,2.643791748046875,-1.528564489018917,0.19097221531942485,-0.06136888013295829
1681147098759862800,2.65386279296875,-1.1364262888848782,0.132133803512156,0.1901419567740522
1681147098769934600,2.6639345703125,-0.38117023139595985,0.12679171183183788,0.31595881395805625
1681147098780005600,2.674005615234375,0.4992074127554893,0.21667495798319578,0.35861689267382024
1681147098790077700,2.68407763671875,0.977117770460248,0.17723668156415223,0.4503584435103461
1681147098800148700,2.694148681640625,0.9374000925779342,-0.013663637562841176,0.46778753455393013
1681147098810220800,2.704220703125,0.4499561828523874,-0.27444413312375543,0.32447613814100623
1681147098820291600,2.71429150390625,-0.125056120210886,-0.46577188388258217,0.009083762426674365
1681147098830363400,2.72436328125,-0.5291852023899555,-0.4675605208650231,-0.2530433985028416
1681147098840434400,2.734434326171875,-0.598036620298028,-0.20032003550976513,-0.5072752030726522
1681147098850506500,2.744506591796875,-0.3390028222739696,0.09489464457258581,-0.5948421716382727
1681147098860577500,2.75457763671875,0.009659224227070808,0.15942001597508787,-0.32780126397572457
1681147098870649600,2.764649658203125,0.23496026399731634,0.0019517185896635054,-0.02196753819081932
1681147098880720600,2.774720703125,0.18554712153077124,-0.1783132247544825,0.18648261228259652
1681147098890792700,2.784792724609375,0.05022212076187133,-0.29827216795682904,0.13310147950053214
1681147098900863700,2.79486376953125,-0.051422144201397894,-0.40600028287842865,-0.09023348436113446
1681147098910935600,2.804935546875,-0.08695230726599693,-0.5338337588481604,-0.2743522901218384
1681147098921006600,2.815006591796875,0.046908466169238085,-0.647499300994724,-0.3179448366761207
1681147098931078700,2.82507861328125,0.2761158657282591,-0.6345610550969839,-0.331649061977677
1681147098941149700,2.835149658203125,0.38838966125547886,-0.5477266751222312,-0.2590959400074556
1681147098951220500,2.845220458984375,0.28875673611462116,-0.5224557480044663,-0.15813647897057234
1681147098961292500,2.85529248046875,-0.05502046095430851,-0.5761066741712391,-0.10621617598868906
1681147098971363600,2.865363525390625,-0.43095279169678685,-0.6369238387055695,-0.08126468095048331
1681147098981435600,2.875435546875,-0.6111714116811752,-0.5951566809475421,-0.1480754598764237
1681147098991506700,2.885506591796875,-0.5572995362401009,-0.564119737648964,-0.2660849586445838
1681147099001578500,2.89557861328125,-0.3205214091658592,-0.5553007636383176,-0.28916977389492093
1681147099011649500,2.9056494140625,0.08604688285887241,-0.536561137985438,-0.3042621656192466
1681147099021721600,2.9157216796875,0.4661667284190654,-0.5381380319133401,-0.22608689291831105
1681147099031792600,2.925792724609375,0.6501046611875295,-0.6162964996099471,-0.06414528604373336
1681147099041864700,2.93586474609375,0.6528443152844905,-0.7036354681059718,0.04078775479923934
1681147099051935700,2.945935791015625,0.44204935525059696,-0.8370097731985151,0.038918851088243535
1681147099062007600,2.956007568359375,0.10086392824053764,-1.0231197893090545,-0.041253289951756596
1681147099072078600,2.96607861328125,-0.40978199337422844,-1.016132414639741,-0.24105503720846025
1681147099082150700,2.976150634765625,-1.0011094714224338,-0.7499214184626937,-0.46349539031796155
1681147099092221700,2.9862216796875,-1.3361772923350332,-0.46556072534993287,-0.5561519736401737
1681147099102293800,2.996293701171875,-1.3147908054351807,-0.40248979053944345,-0.4693262884285301
1681147099112364500,3.006364501953125,-1.0280103378295897,-0.4952648126095533,-0.28729367782473564
1681147099122436600,3.0164365234375,-0.5367565144270658,-0.5553061704657971,-0.12568236235044897
1681147099132507600,3.026507568359375,-0.058871291163563724,-0.5843647994287312,0.01825352263636887
1681147099142579500,3.036579345703125,0.2564332601368427,-0.6413247040130198,0.20590382699146867
1681147099152650500,3.046650390625,0.3475684060454368,-0.575788840393722,0.378655216367729
1681147099162721500,3.056721435546875,0.21758476630449294,-0.4285249800279736,0.4697639126608148
1681147099172793600,3.066793701171875,0.1120586914718151,-0.2830485876008868,0.4815388138676062
1681147099182864600,3.07686474609375,0.14101064518988132,-0.2569394560933113,0.3563005785554647
1681147099192936700,3.086936767578125,0.23511107064485548,-0.3795315242782235,0.1582617493180558
1681147099203007700,3.0970078125,0.46124914576113224,-0.4827762101754546,0.02004102710764855
1681147099213079800,3.107079833984375,0.6840951935946941,-0.521291526530683,-0.05564989056480117
1681147099223150800,3.11715087890625,0.703687198293209,-0.595099105541408,0.04150602260380983
1681147099233222700,3.12722265625,0.5274602782934904,-0.6976075861185789,0.14191084543261676
1681147099243293400,3.13729345703125,0.19534546196758745,-0.7800333558708429,0.1492034135935828
1681147099253365200,3.147365234375,-0.09742577048540114,-0.8205231871694326,0.0188538631496951
1681147099263436300,3.157436279296875,-0.2846153985261917,-0.7948831344783306,-0.14977840046994387
1681147099273508400,3.16750830078125,-0.242169172462821,-0.7499252178549766,-0.24612072310019284
1681147099283579400,3.177579345703125,0.03207271608710289,-0.6632227936968207,-0.2219861430685967
1681147099293651500,3.1876513671875,0.4532546398758888,-0.6224985691204666,-0.13201592188668437
1681147099303722500,3.197722412109375,0.9044120152115821,-0.7109019519776105,0.01535787426009774
1681147099313794300,3.207794189453125,1.0047726701050996,-0.934271146902442,0.12907456207200885
1681147099323865000,3.217864990234375,0.7359808636546135,-1.0836977382600306,0.10697773494571447
1681147099333937400,3.2279375,0.3320715617060661,-1.0716679855093358,-0.006954385715164243
1681147099344008200,3.23800830078125,0.048284430697560304,-0.8872533751398325,-0.07187003507688641
1681147099354080300,3.248080322265625,-0.02467968322634697,-0.6445785912424326,0.012987669963459484
1681147099364151300,3.2581513671875,0.0838204389810562,-0.42685353968441486,0.1817745807221159
1681147099374222300,3.268222412109375,0.23363924452662466,-0.22856384095847607,0.3670732804497704
1681147099384294100,3.278294189453125,0.31581308534443375,-0.20696984878778457,0.5146072264611721
1681147099394365200,3.288365234375,0.3860410523027181,-0.28700901566445824,0.5669951834874227
1681147099404437200,3.298437255859375,0.41983986153006553,-0.3976543332070112,0.48986846999134864
1681147099414508300,3.30850830078125,0.3966045318931341,-0.5179182507053017,0.3576248494291678
1681147099424580400,3.318580322265625,0.3641360944867134,-0.5760790555119514,0.17286540767736733
1681147099434651400,3.3286513671875,0.33174306040406226,-0.596977174372971,0.04436857242807746
1681147099444723500,3.338723388671875,0.2976999210268259,-0.5334747162774205,-0.03879343917686492
1681147099454794500,3.34879443359375,0.3222697141379118,-0.47584757995605464,-0.09464220418147742
1681147099464866300,3.3588662109375,0.28682722935676574,-0.4806529344111681,0.002343238657899201
1681147099474937000,3.36893701171875,0.21530571545660496,-0.4332023241892457,0.12539945375584066
1681147099485009200,3.379009033203125,0.07315525258183479,-0.34657881048619743,0.17928835339695215
1681147099495080200,3.389080078125,-0.04614274249374866,-0.23802169739454984,0.15449147353172302
1681147099505152300,3.39915234375,-0.14432079265117645,-0.1314937520429492,0.10619831153843551
1681147099515223300,3.409223388671875,-0.14466273795664308,-0.05435790539234876,0.027487287992984055
1681147099525295400,3.41929541015625,0.10834463938474655,-0.0488467407554388,-0.03192801038678735
1681147099535366400,3.429366455078125,0.35332360857129097,-0.08378010697066783,-0.11301533460952341
1681147099545438200,3.439438232421875,0.44330081661641596,-0.20582740075439213,-0.23838925206530837
1681147099555509200,3.44950927734375,0.37188451665639877,-0.2659519068494439,-0.3730224711777642
1681147099565581300,3.459581298828125,0.23956220483481883,-0.2928457589939236,-0.4498716098414734
1681147099575652400,3.46965234375,0.13567980555593967,-0.28252631729245187,-0.5237578801115974
1681147099585724400,3.479724365234375,0.06164134039878845,-0.19286241298019885,-0.5336181433361024
1681147099595795500,3.48979541015625,0.07598433852791786,-0.03540010694414377,-0.48651715026944875
1681147099605867300,3.4998671875,0.15816928526163102,0.09837474177330732,-0.45899932100772856
1681147099615938300,3.509938232421875,0.18486790709495543,0.17394377749860285,-0.4993459079107269
1681147099626009300,3.52000927734375,0.1666314086586237,0.2251554938197136,-0.5763287559567019
1681147099636081200,3.5300810546875,0.1472802269786596,0.25606647265106436,-0.6147149295069277
1681147099646152200,3.540152099609375,0.15502572653889654,0.21972966937869787,-0.5618260006885976
1681147099656224300,3.550224365234375,0.2603992411583662,0.18620967709273098,-0.45289124992359425
1681147099666295300,3.56029541015625,0.46558746722638605,0.1706698703944683,-0.24978779424037784
1681147099676367400,3.570367431640625,0.7020499524801969,0.18252865049242972,-0.024225400120206176
1681147099686438400,3.5804384765625,0.8325351120024919,0.22671061430722475,0.1747541440334171
1681147099696510200,3.59051025390625,0.7270499537020921,0.27200638458281756,0.34257257051952184
1681147099706581200,3.600581298828125,0.34103111323118207,0.2711377850547433,0.41608668300900603
1681147099716653300,3.6106533203125,-0.12466273697912693,0.240990484072268,0.3331475569071248
1681147099726724400,3.620724365234375,-0.43494858333468434,0.2224795526087284,0.1736085541948676
1681147099736796400,3.63079638671875,-0.42812429027259347,0.19779548546820877,0.08767466672379523
1681147099746867200,3.6408671875,-0.1480126329064369,0.1743903522223234,0.13531382178775966
1681147099756939300,3.650939208984375,0.25592998678982254,0.1792556201711297,0.2356570688887499
1681147099767010300,3.66101025390625,0.6337602601081133,0.18566665625721215,0.32204134874213486
1681147099777082000,3.67108203125,0.7758090161740779,0.12079057172089815,0.4320751102576032
1681147099787153200,3.681153076171875,0.6819798088759184,0.02488134327828884,0.47917361910622563
1681147099797225200,3.69122509765625,0.4188029196977615,-0.0280985517591238,0.44116365845724936
1681147099807296300,3.701296142578125,0.12097440385520458,0.05955459725260734,0.3453328290130943
1681147099817368300,3.711368408203125,-0.1343143624216318,0.1644596175774932,0.22781291299331932
1681147099827439400,3.721439453125,-0.2987883007854223,0.21355478013604878,0.07199004472736269
1681147099837511400,3.731511474609375,-0.4559586381375789,0.2558873166918754,-0.041169228397496045
1681147099847582500,3.74158251953125,-0.4477344151496887,0.249921978546679,-0.022148137188423424
1681147099857654300,3.751654296875,-0.2996908025830984,0.21014058777838945,0.08595518598742782
1681147099867725300,3.761725341796875,0.023215455892682074,0.14557298466935753,0.2419349618481472
1681147099877797400,3.77179736328125,0.3070487641304731,0.07852934683561325,0.41616150181088596
1681147099887868400,3.781868408203125,0.23753508292138575,0.05589899735450744,0.45094336725883183
1681147099897939200,3.791939208984375,-0.2126671836465597,0.03952537018060684,0.3214306329652667
1681147099908011300,3.80201123046875,-0.7151900045603513,0.08154708722159267,0.09411264561573043
1681147099918082300,3.812082275390625,-0.9796312145859003,0.16001257504075764,-0.061039410716574635
1681147099928154000,3.822154052734375,-0.9833943665117025,0.22991437878459692,-0.06436060929484665
1681147099938225200,3.83222509765625,-0.7944529263675212,0.3300868176296353,-0.004568184698373079
1681147099948297200,3.842297119140625,-0.5141705886095762,0.3827944715969264,0.09507524357018991
1681147099958368300,3.8523681640625,-0.2607791803866625,0.38367023151814933,0.11995397476628422
1681147099968440300,3.8624404296875,-0.20272212821543215,0.2920312277406454,0.09511858952157198
1681147099978511400,3.872511474609375,-0.2221177335590124,0.20302783316373824,0.0561116719908081
1681147099988583400,3.88258349609375,-0.10094868391454219,0.1707489269800484,-0.024680596541799604
1681147099998654500,3.892654541015625,0.05594049840867519,0.14081629166156054,-0.07730886512994765
1681147100008726300,3.902726318359375,0.18844108940660953,0.07237330842390656,-0.1388468182194978
1681147100018797300,3.91279736328125,0.27531857787072656,-0.005933481702208519,-0.23316516074147073
1681147100028869400,3.922869384765625,0.3110135761082172,-0.05646773715317249,-0.2951439712000079
1681147100038940200,3.932940185546875,0.3956979384422302,-0.09794424140155315,-0.24639753074757753
1681147100049012200,3.94301220703125,0.42422494474649425,-0.13231997373402118,-0.17525065884608773
1681147100059083300,3.953083251953125,0.3461076858431101,-0.09998919123262166,-0.09644885174464433
1681147100069155300,3.9631552734375,0.24620061993598938,-0.0538180994272232,-0.03620199791155755
1681147100079226400,3.973226318359375,0.20243629701137542,-0.04751549215167761,0.027002682813815772
1681147100089298200,3.983298095703125,0.1840460693180561,0.0013899930536746979,0.06725132576767355
1681147100099369200,3.993369140625,0.2259130341887474,0.07152209842205047,0.0504649165417999
1681147100109441300,4.003441162109375,0.3215449069947004,0.12687047615647315,0.036128275088220835
1681147100119512300,4.01351220703125,0.32745559234321114,0.17692600817978382,0.028801804657652974
1681147100129584400,4.02358447265625,0.2955079639405012,0.21777444365769624,0.08519917998835444
1681147100139655400,4.033655517578125,0.21244331176280973,0.20700345879644155,0.13797756110429762
1681147100149727200,4.043727294921875,0.12102817986905574,0.186733700966835,0.13619608451500534
