time,seconds_elapsed,z,y,x
1681147281216309200,0.013309326171875,0.07920037796497345,-0.13045242629647255,-0.010930486271902918
1681147281226381300,0.02338134765625,0.1496902107298374,-0.03907207345515489,-0.1407781516082585
1681147281236453400,0.033453369140625,0.275633050647378,-0.04195581219792366,-0.13136186929158866
1681147281246525200,0.043525146484375,0.2986544452726841,-0.11059621770381926,-0.04868745854049921
1681147281256597200,0.05359716796875,0.29981822835505006,-0.09774287361055611,-0.10215236061587929
1681147281266669300,0.06366943359375,0.27711072198450565,-0.04436316560059786,-0.19830029318518935
1681147281276742100,0.0737421875,0.1548182212680578,-0.0558095655053854,-0.15895159474574028
1681147281286814200,0.083814208984375,-0.08137713748216628,-0.05766249989569187,-0.1227588761191815
1681147281296886300,0.09388623046875,-0.13740940582752226,0.0420452440470457,-0.18465733308419585
1681147281306958300,0.103958251953125,-0.010831775137782097,0.14637860196381808,-0.22778876493275163
1681147281317030400,0.114030517578125,0.19911971980929374,0.12948591935187578,-0.2126981633067131
1681147281327102500,0.1241025390625,0.3760825528681278,0.038409225632250306,-0.180275683933869
1681147281337174500,0.134174560546875,0.3864923032015562,-0.0935761093199253,-0.09834931507110595
1681147281347246300,0.144246337890625,0.26645138080418107,-0.12416121719777583,-0.07016724974699318
1681147281357318400,0.154318359375,0.13721183742880821,-0.09739888247847557,-0.06053308689594268
1681147281367391200,0.16439111328125,0.026093641677498815,-0.05947714810222387,-0.06429543510414659
1681147281377463300,0.17446337890625,0.08238368417620659,0.0079646952688694,-0.09505465743988752
1681147281387535400,0.184535400390625,0.36526889790892597,0.03056815674304962,-0.17559833977259695
1681147281397607400,0.194607421875,0.719847474977374,-0.004424246183037757,-0.22655162435322998
1681147281407679200,0.20467919921875,0.9385954398423433,-0.052532735791802405,-0.17282566018886864
1681147281417751300,0.214751220703125,0.9085399087965488,-0.07429448574483394,-0.03753478088527917
1681147281427823600,0.22482373046875,0.6790577839493751,-0.021108839002251623,0.10860730890892445
1681147281437895400,0.2348955078125,0.36925709076225754,0.03170096016526222,0.22385573633275924
1681147281447967500,0.244967529296875,0.17643910144567487,0.0931008930236101,0.2284129612457007
1681147281458039600,0.25503955078125,0.10662848311662673,0.24864509047865865,0.17004582021199166
1681147281468112400,0.2651123046875,-0.14689561157524586,0.7629527494713664,0.19534692327231168
1681147281478184400,0.275184326171875,-0.02436930210292339,0.3672609485089779,0.3333606516685337
1681147281488256500,0.285256591796875,0.3702770814597606,-0.0004208557605743408,0.39636407420076425
1681147281498328600,0.29532861328125,0.43467327352464197,0.32458383629918097,0.4920257576230913
1681147281508400600,0.305400634765625,0.10699264025390147,0.43336072962135075,0.4968084983875975
1681147281518472700,0.31547265625,-0.0587765986174345,0.3897916370078921,0.5105533844931051
1681147281528544800,0.325544677734375,0.02978080575764179,0.361576180870831,0.4911412298735231
1681147281538616600,0.335616455078125,0.1856055737197399,0.27299247301071883,0.4125889405537396
1681147281548688600,0.345688720703125,0.2660182500839233,0.14877221910208463,0.3417441568713635
1681147281558761500,0.355761474609375,0.2608253576159477,0.05501987643241882,0.21068338941819964
1681147281568833500,0.36583349609375,0.18688859926760196,0.04741641569137573,0.09841843478456139
1681147281578905600,0.375905517578125,0.1218447569489479,0.10182312866151333,0.1345282243680209
1681147281588977700,0.385977783203125,0.10962240423560142,0.10886369482278824,0.15927059756703674
1681147281599049500,0.396049560546875,0.10267068540155887,0.045452129881083964,0.19351583538763223
1681147281609121500,0.40612158203125,0.059357028853893275,-0.00763181005269289,0.24422376690506933
1681147281619193600,0.416193603515625,0.06430033047497272,-0.0760487820662558,0.3452753997374326
1681147281629265700,0.426265625,-0.01557166314125061,-0.12432196071743964,0.42850532547943293
1681147281639337500,0.43633740234375,0.020302783316373824,-0.17248904864564538,0.42568924514539536
1681147281649409500,0.446409423828125,0.1250257250726223,-0.26332696517333387,0.33862346756756306
1681147281659482400,0.456482421875,0.23298691809773445,-0.3831447463393211,0.2477731299497187
1681147281669554400,0.466554443359375,0.3746580730229616,-0.48726460763588547,0.2110725348662585
1681147281679626500,0.47662646484375,0.5234668247431516,-0.6469755693815649,0.23781740699410436
1681147281689698600,0.486698486328125,0.5703659385621548,-0.9010393239080905,0.2534058751396835
1681147281699770400,0.496770263671875,0.4178741144150495,-1.0465775295250117,0.2603451728835702
1681147281709842700,0.5068427734375,0.17716098597943783,-1.030356024172902,0.20458054249845445
1681147281719914800,0.516914794921875,0.09266191708445548,-0.9688521925486624,0.025284955643117425
1681147281729986600,0.526986572265625,0.17497370506823062,-0.9261094677567482,-0.18153554780185222
1681147281740058600,0.53705859375,0.2930944730579853,-0.9457610936880111,-0.31576705424562096
1681147281750131700,0.547131591796875,0.33797464827001095,-0.9691114280067383,-0.31506307069472966
1681147281760203500,0.55720361328125,0.28995032981336116,-0.9374087142758071,-0.28767339785732327
1681147281770275600,0.567275634765625,0.26793022118508814,-0.9036226183995604,-0.26306276127919553
1681147281780347600,0.57734765625,0.23714637586474419,-0.939696386821568,-0.18660284112878142
1681147281790419500,0.58741943359375,0.0529687891215086,-1.0118781181961298,-0.04877900928147137
1681147281800491500,0.597491455078125,-0.11932839021384715,-1.0274709702558815,0.04730601411946118
1681147281810563600,0.6075634765625,-0.07204407646954059,-0.9959219857819378,0.026890710339322686
1681147281820635600,0.6176357421875,0.025861001965403554,-0.9798841664336622,0.014205050963163376
1681147281830707500,0.62770751953125,0.25254151339530945,-1.0232968994416296,-0.065537690250203
1681147281840780500,0.637780517578125,0.5571703569024801,-1.1115281406022608,-0.13158537584915755
1681147281850852600,0.6478525390625,0.7135223636090755,-1.1497568951010704,-0.1303122871734202
1681147281860924400,0.65792431640625,0.7549415847122669,-1.1138342255875469,-0.08850362836122512
1681147281870996500,0.66799658203125,0.7613660648018121,-1.0817039340943098,-0.08643062147945166
1681147281881068500,0.678068603515625,0.7174298924416304,-1.0729730767585337,-0.08272950193919242
1681147281891140400,0.688140380859375,0.6594260317623615,-1.0704849132046104,-0.05282740788944065
1681147281901212400,0.69821240234375,0.7327987264871597,-1.041841002522409,0.011895458846539258
1681147281911284700,0.70828466796875,0.8189356257170438,-1.0100526563346386,0.053808527881279586
1681147281921356800,0.718356689453125,0.8792688061267137,-1.037674238231778,0.04730513733662665
1681147281931428600,0.7284287109375,0.813588419470191,-1.0952562202371656,0.05004376852028072
1681147281941501700,0.738501708984375,0.6526409016668796,-1.1763184465512633,0.047034284505993125
1681147281951573500,0.748573486328125,0.5214052160382271,-1.0927464293733238,0.0671091773506254
1681147281961645600,0.7586455078125,0.44020285060107706,-0.9670873748332262,0.10116568766608834
1681147281971717600,0.768717529296875,0.4112877217620611,-0.8710385917894542,0.14443090196214614
1681147281981789700,0.778789794921875,0.46533787637948987,-0.7861684976249933,0.24583543988540768
1681147281991861500,0.788861572265625,0.4762023847430944,-0.7440504806026816,0.25782347238622605
1681147282001933600,0.79893359375,0.4302051881998777,-0.7382949858158826,0.2613115336976945
1681147282012005600,0.809005615234375,0.3510182542383671,-0.8061497939020394,0.27564678691178557
1681147282022077400,0.819077392578125,0.24044132575690744,-0.8848806546591221,0.23786526472382247
1681147282032150500,0.829150634765625,0.22657822009921072,-0.9410457556039095,0.24424948586821554
1681147282042222600,0.83922265625,0.37566578876078127,-0.9510824348412453,0.2716106632634997
1681147282052294400,0.84929443359375,0.4853086512625217,-0.949261064632982,0.26599421162120995
1681147282062366500,0.859366455078125,0.5378185907006263,-0.9841368554420769,0.2765578373420983
1681147282072438500,0.8694384765625,0.5208025739699602,-1.026087991464883,0.2821748735062778
1681147282082510600,0.879510498046875,0.4048877915918827,-1.0944333595469593,0.3319809242805466
1681147282092582400,0.88958251953125,0.2373673251390457,-1.1285260371543466,0.4050648286592215
1681147282102654500,0.899654541015625,0.16799802083671092,-1.1400183220274747,0.5186765582593158
1681147282112726800,0.909726806640625,0.25745208179056644,-1.1484991501249373,0.5682919452996924
1681147282122799600,0.919799560546875,0.3222895878821611,-1.1717530383318662,0.5219533514402807
1681147282132871700,0.92987158203125,0.3836714005619287,-1.2179499952308832,0.4380194786800071
1681147282142943700,0.93994384765625,0.44687282988429067,-1.247486763099581,0.37368243292383846
1681147282153015600,0.950015625,0.28488252502977846,-1.327364894195646,0.30688166393525895
1681147282163087600,0.960087646484375,0.04362579123675823,-1.3868654231734574,0.2178282196715474
1681147282173159700,0.97015966796875,-0.19227438395917415,-1.2958790380857883,0.18825484611950813
1681147282183231500,0.9802314453125,-0.2877139490634203,-1.116140456703305,0.15571776392366737
1681147282193303600,0.990303466796875,-0.35703473804891106,-0.9461755197077989,0.1340712378481403
1681147282203375600,1.000375732421875,-0.5121744463562965,-0.7847288202106952,0.14752258436717092
1681147282213448400,1.010448486328125,-0.6258651229441166,-0.6721430361248553,0.11909564090389757
1681147282223520500,1.0205205078125,-0.6942097603738308,-0.6544160946458578,0.11310440113246441
1681147282233592600,1.030592529296875,-0.7285486678272485,-0.6879609291121364,0.034019100914523
1681147282243664400,1.040664306640625,-0.7753957591980696,-0.8163067385181784,-0.1145166790831834
1681147282253736400,1.050736328125,-0.7893108873039484,-0.8984941694699228,-0.2969552036067471
1681147282263808500,1.06080859375,-0.6914595848828554,-0.6675242902830243,-0.24431086066663263
1681147282273880600,1.070880615234375,-0.5452537091374396,-0.27837591961473224,-0.1451851543955505
1681147282283952400,1.080952392578125,-0.43580315433740613,0.017748130397498608,-0.020899434035271405
1681147282294024400,1.0910244140625,-0.43352819514274593,0.17562179371342063,0.13600363068282603
1681147282304097500,1.10109765625,-0.6865531081408262,0.28541765481978654,0.21876433147788046
1681147282314169600,1.111169677734375,-1.0699749178558586,0.4280985713094473,0.26358145139105615
1681147282324241700,1.12124169921875,-1.3319354169815778,0.7138296759925782,0.27343422542884943
1681147282334313700,1.131313720703125,-1.4413988312631845,1.0686357782065867,0.2797609442323446
1681147282344385500,1.141385498046875,-1.5481038867473602,1.365099581567198,0.29995654084719714
1681147282354457600,1.15145751953125,-1.4553636437296866,1.5603258010692893,0.3898070537727326
1681147282364529700,1.16152978515625,-1.1984966683506966,1.5793050806969404,0.39636436646170914
1681147282374601700,1.171601806640625,-0.9674299046605825,1.4681905382074414,0.3369944781262427
1681147282384673500,1.181673583984375,-0.7348363697946071,1.3051155068561433,0.2786469185758382
1681147282394745600,1.19174560546875,-0.5311480268955231,1.1849432131640611,0.14954758738875387
1681147282404818400,1.201818359375,-0.22342764711380003,1.0692824055470525,-0.024933950248360634
1681147282414890500,1.211890380859375,0.09095219055712223,0.9055918726459145,-0.2999913929648697
1681147282424962600,1.221962646484375,0.3987356987029314,0.702474899893999,-0.6134571845307946
1681147282435034600,1.23203466796875,0.6833914292395115,0.5773576971456408,-0.8400739830747246
1681147282445106400,1.2421064453125,0.8849643874198198,0.5537270845808089,-0.973957406733185
1681147282455178500,1.252178466796875,0.9882201792329549,0.5445087359890342,-0.9867479147233068
1681147282465250600,1.26225048828125,1.0229057081669568,0.47570612565875053,-1.0421326058801264
1681147282475322400,1.272322265625,1.0349977124989032,0.42695305453613397,-1.1186857572719453
1681147282485394400,1.28239453125,1.0055267033427953,0.4346924166165292,-1.1183671197768301
1681147282495467800,1.2924677734375,0.9873153393477201,0.4636212817199528,-1.1250658867631107
1681147282505539600,1.30253955078125,0.8997159663498401,0.550539394455403,-1.0985780581362545
1681147282515611600,1.312611572265625,0.8166501451283693,0.6304780235670506,-1.0847696783404797
1681147282525683700,1.32268359375,0.659292760771513,0.6804267342150211,-1.0574733098097144
1681147282535755500,1.332755615234375,0.44709787081182,0.7342755210414529,-0.925801278590411
1681147282545827600,1.34282763671875,0.14262451012730598,0.7567389895230531,-0.7731917463477701
1681147282555899600,1.352899658203125,-0.2394324409753084,0.7189980185411871,-0.5914359068587423
1681147282565971700,1.3629716796875,-0.5566460407674312,0.7229336044244468,-0.4559258318465203
1681147282576043500,1.37304345703125,-0.7059487134844065,0.793091867147386,-0.32054201356247064
1681147282586116600,1.38311669921875,-0.6832242559790611,0.8051349177710712,-0.1680206710599363
1681147282596188700,1.393188720703125,-0.5488964495539664,0.7138464809969067,-0.023588453923538324
1681147282606260500,1.403260498046875,-0.3814999017417431,0.5621053290866315,0.06555909836441277
1681147282616332500,1.41333251953125,-0.06694821463525295,0.5188434027262032,0.05645443928018212
1681147282626404600,1.423404541015625,0.39220600467324257,0.45781098800599573,-0.0006995265714824199
1681147282636476400,1.433476318359375,0.8547609723359346,0.275764421942085,-0.12018581076078116
1681147282646548500,1.443548583984375,1.24091892901659,0.120977326464653,-0.20002390210740267
1681147282656620500,1.45362060546875,1.551561918246746,-0.026652006212621926,-0.3161218590326607
1681147282666692600,1.463692626953125,1.786942453482747,-0.13530001245811582,-0.3447860087852925
1681147282676765700,1.473765625,1.8172259480655193,-0.24047362059131264,-0.30164880478307604
1681147282686837800,1.483837646484375,1.8657336661249397,-0.33179391380846496,-0.2390443184405565
1681147282696909600,1.49390966796875,1.8366192153215408,-0.3964947879083454,-0.1772168808851391
1681147282706981600,1.503981689453125,1.7162012763053178,-0.4854746554791927,-0.12271598682552576
1681147282717053700,1.5140537109375,1.5238076498806477,-0.5924196571990847,-0.08538819975443183
1681147282727125800,1.524125732421875,1.380792679131031,-0.6740935856707394,-0.07608947940282523
1681147282737197600,1.534197509765625,1.2598925095558167,-0.7271141049794853,-0.11694923999235034
1681147282747269600,1.54426953125,1.0100625932067633,-0.7662336708381772,-0.1304736882802099
1681147282757341700,1.554341796875,0.7402700852811336,-0.7793387977354228,-0.1444927151519805
1681147282767414500,1.56441455078125,0.46117783409059043,-0.799093080323562,-0.14007329127453266
1681147282777486600,1.574486572265625,0.18293197059631347,-0.8336173542812466,-0.15198577432110905
1681147282787558700,1.58455859375,-0.057715106865763664,-0.8653917450089007,-0.14546053727082908
1681147282797630500,1.59463037109375,-0.30847149040997024,-0.9089655137974768,-0.13266747199743986
1681147282807702500,1.60470263671875,-0.515465304595232,-0.9787803699102252,-0.16290734663419423
1681147282817774600,1.614774658203125,-0.5707464623123407,-1.1070707958672195,-0.20334785889834164
1681147282827846400,1.624846435546875,-0.5330062219828366,-1.2250300166197121,-0.18136713243238628
1681147282837918500,1.63491845703125,-0.5480325262010097,-1.3581754813924432,-0.21760858557149768
1681147282847990500,1.644990478515625,-0.6855266877025366,-1.379608437782526,-0.31483824896290896
1681147282858063400,1.6550634765625,-0.75540218796134,-1.2707897511452435,-0.3481306430380791
1681147282868135400,1.665135498046875,-0.8586082954138516,-1.1542904468774795,-0.33939671696238216
1681147282878207700,1.675207763671875,-1.2054980715453625,-1.0678884669706226,-0.27283940134085716
1681147282888279600,1.685279541015625,-1.4954630144059657,-1.0325983962722123,-0.2960620906919241
1681147282898351600,1.6953515625,-1.6389567085832357,-1.1230666027046738,-0.35247086419947443
1681147282908423700,1.705423583984375,-1.721342730847001,-1.2620701458558439,-0.38603783743232484
1681147282918495700,1.715495849609375,-1.6488438963472842,-1.4190057976692914,-0.3968142291210592
1681147282928567600,1.725567626953125,-1.29713064558208,-1.5290423356637357,-0.31724304508231577
1681147282938640600,1.735640625,-0.951755365666747,-1.4625892110690473,-0.2253195983402431
1681147282948712700,1.745712646484375,-0.9858201323539018,-1.1937371988639234,-0.16125329581685363
1681147282958784500,1.755784423828125,-1.1828192067474126,-0.9602008301898837,-0.20186763027794657
1681147282968856600,1.765856689453125,-1.466812089461088,-0.9250335090883076,-0.28346476718634367
1681147282978928600,1.7759287109375,-1.5512322479009628,-1.0671595681741832,-0.24965748239159583
1681147282989000400,1.78600048828125,-1.3213374505996702,-1.0467293590858577,-0.02280475619994104
1681147282999072500,1.796072509765625,-1.221181962889433,-0.7090728368543088,0.23549678202681243
1681147283009144600,1.80614453125,-1.2280775676220654,-0.19218948215469717,0.31753464844003315
1681147283019216600,1.816216552734375,-1.2358803503274918,0.24680428491756318,0.31319150466918944
1681147283029289500,1.82628955078125,-1.218559213170409,0.505094863358885,0.23387349167391658
1681147283039361500,1.836361572265625,-1.1447867054730654,0.6446610088288783,0.07668218459896743
1681147283049433300,1.846433349609375,-1.0466875657707453,0.838655932970345,0.011671806158497928
1681147283059505400,1.85650537109375,-0.8878893349558115,1.1020790519945323,0.06676482089236378
1681147283069577500,1.866577392578125,-0.6819102507710456,1.340707190849632,0.1124846617989242
1681147283079649800,1.87664990234375,-0.5681166983306407,1.5794732768706976,0.061207698221877216
1681147283089721600,1.8867216796875,-0.5592343036949634,1.8318474708750843,-0.09117737761512398
1681147283099793700,1.896793701171875,-0.5917074172765017,2.0599089152693746,-0.3079066230688244
1681147283109865700,1.90686572265625,-0.6277431917756795,2.1351098483346402,-0.5212431573443115
1681147283119938600,1.9169384765625,-0.6076940909594297,2.0168115318208932,-0.5953302108835429
1681147283130010600,1.9270107421875,-0.4466244080811739,1.7605305396363138,-0.45370472173094745
1681147283140082700,1.937082763671875,-0.12906652489602566,1.4756228801652789,-0.21328648458868263
1681147283150154500,1.947154541015625,0.3404775710016489,1.2708933576501906,-0.06177227330207825
1681147283160226600,1.9572265625,1.158295590865612,1.2168728675186633,0.13342486623600125
1681147283170298600,1.967298583984375,1.7975363282114267,1.227533670003712,0.3288218391951173
1681147283180370700,1.97737060546875,1.9869079764664173,1.204368482993543,0.48050972654819485
1681147283190442500,1.9874423828125,1.7981857320308685,1.0632505780369044,0.4876267189465463
1681147283200514600,1.9975146484375,1.592220676371455,0.9179980574935674,0.48070729494690895
1681147283210587400,2.00758740234375,1.3854232615411282,0.8311262681178748,0.49381819399781524
1681147283220659500,2.017659423828125,1.133418339240551,0.7851803633704781,0.4515871450550854
1681147283230731500,2.0277314453125,0.8810556895434856,0.7861997695460915,0.5320671875670552
1681147283240803600,2.037803466796875,0.5002560450255871,0.7327417356029152,0.7311379536680876
1681147283250875400,2.04787548828125,0.003776595929265022,0.6445841442003846,0.8887018203824758
1681147283260947500,2.057947509765625,-0.3242886527448892,0.581453880418092,0.9305069720633328
1681147283271019500,2.06801953125,-0.48156595760285853,0.6624988633364438,0.8994930443141609
1681147283281091300,2.07809130859375,-0.4254617930650711,0.7845714376918971,0.8197038336105644
1681147283291164700,2.08816455078125,-0.34628362693190573,0.8310888587169348,0.702868940712884
1681147283301236700,2.09823681640625,-0.22582477138340473,0.8344529283225536,0.624309856326133
1681147283311308500,2.10830859375,-0.3298503785252571,0.9453039975702762,0.6831096896886825
1681147283321380600,2.118380615234375,-0.399917017441988,0.9727103292815387,0.6155787797946483
1681147283331452700,2.12845263671875,-0.4956102650463581,0.8674718392185866,0.619341420263797
1681147283341524500,2.1385244140625,-0.5735428150326013,0.799550541767478,0.6474724129877985
1681147283351596500,2.148596435546875,-0.5008762227505446,0.7788220803849398,0.5576583596151322
1681147283361668600,2.158668701171875,-0.1730658256202936,0.7527826531127095,0.3696833533503115
1681147283371740700,2.16874072265625,0.2191167981773615,0.6448970095418394,0.1873891692008823
1681147283381813500,2.1788134765625,0.6673322748422622,0.5319796554140747,0.0226424783103168
1681147283391885600,2.188885498046875,1.1518933226078747,0.38678324897214766,-0.23831899984069166
1681147283401957600,2.19895751953125,1.5740484753429889,0.23602993905544278,-0.45003158617615696
1681147283412029400,2.209029541015625,1.8614976359903812,0.035276480564475056,-0.5707992884781211
1681147283422101500,2.2191015625,1.9914853673845527,-0.15120295338034628,-0.6475446014411748
1681147283432173800,2.229173828125,2.0119021324694155,-0.24071765848025678,-0.6612229981817305
1681147283442245600,2.23924560546875,1.973012137582898,-0.26037995193600655,-0.6161774032749235
1681147283452317700,2.249317626953125,1.9223668229728936,-0.27398250696137544,-0.5214199021507054
1681147283462389800,2.2593896484375,1.8665028969317674,-0.30747225023955105,-0.44856728577725585
1681147283472462600,2.269462646484375,1.8295704658538101,-0.3716436936378479,-0.4272267934435978
1681147283482534700,2.27953466796875,1.7846008587926625,-0.47402328713834285,-0.46898660814538595
1681147283492606700,2.289606689453125,1.6003922923892735,-0.5836823701225221,-0.5213039476208389
1681147283502678500,2.299678466796875,1.4221604623079298,-0.719941729132086,-0.5326629980357364
1681147283512750600,2.30975048828125,1.2502484828978777,-0.804956054072827,-0.4840022083064541
1681147283522822700,2.31982275390625,1.1030156021922826,-0.8156212404720484,-0.355741994824633
1681147283532895000,2.32989501953125,0.9878940160185098,-0.7950175745129585,-0.2081587663114071
1681147283542966800,2.339966796875,0.9239701176404952,-0.7325231244161725,-0.06020615649651736
1681147283553040000,2.350039794921875,0.7780453969240189,-0.7211760932326317,0.045022871618345374
1681147283563111700,2.360111572265625,0.690451284623146,-0.7266812665201723,0.16293639006558805
1681147283573183700,2.370183837890625,0.6003495734155178,-0.7298093354128301,0.2231628221651539
1681147283583255800,2.380255859375,0.5018962134480476,-0.7847751435704529,0.21778335761651396
1681147283593327900,2.390327880859375,0.37607320051789284,-0.8460621175736188,0.32415782943945376
1681147283603399700,2.400399658203125,0.2349970888763666,-0.8262440490342676,0.560893542144075
1681147283613471700,2.4104716796875,0.12268705299198626,-0.7686069758407771,0.7248943831034004
1681147283623543800,2.420543701171875,0.031043957561254498,-0.5943422958247363,0.8242511216513813
1681147283633615600,2.43061572265625,-0.19847849929630756,-0.3474529629722237,0.8947256107166409
1681147283643688700,2.440688720703125,-0.47579438846409317,-0.14893953849300742,0.9386515539437532
1681147283653760800,2.4507607421875,-0.6892360636144876,-0.11387947715818882,0.9402326125901191
1681147283663832600,2.46083251953125,-0.7022492744445801,-0.14178440604135392,0.7615906673379242
1681147283673904600,2.470904541015625,-0.5926835688322782,-0.19117650571987033,0.4178785713944584
1681147283683976700,2.480976806640625,-0.6897627178370952,-0.30160920342504977,0.06934073579497635
1681147283694048800,2.491048828125,-0.8379992226272821,-0.3710632634013891,-0.061836497644707555
1681147283704120600,2.50112060546875,-1.067885252100229,-0.42742958600670095,-0.017665274419635533
1681147283714192600,2.511192626953125,-1.3883119687199592,-0.5048673382133245,0.046392552536353465
1681147283724264700,2.5212646484375,-1.601023576030135,-0.5297103953078389,0.03677643679864705
1681147283734337800,2.531337890625,-1.6877964350759982,-0.44913215311840177,0.02745762350708246
1681147283744409900,2.541409912109375,-1.7590969997018575,-0.35117943614944813,-0.025495821914821862
1681147283754482000,2.55148193359375,-1.8083289403825997,-0.2502184772752225,-0.05953085105083882
1681147283764553700,2.5615537109375,-1.7726625837177037,-0.12753405463173983,-0.1277821841739118
1681147283774625800,2.571625732421875,-1.6370856540143488,-0.053205228225886816,-0.17352504062987864
1681147283784697900,2.58169775390625,-1.6058324376165867,0.028903146140277385,-0.1849533203560859
1681147283794769700,2.591769775390625,-1.8312895447313784,0.248833744918555,-0.2433525370284915
1681147283804841700,2.601841796875,-2.0450468617022035,0.5859931312829255,-0.3899900821894407
1681147283814914800,2.611914794921875,-2.098265826192498,0.9500855327583849,-0.5572033093240112
1681147283824986600,2.621986572265625,-2.068127877560258,1.2781382142119109,-0.49936205532792954
1681147283835058700,2.63205859375,-1.9390110837817192,1.5642824297405777,-0.30935992714967575
1681147283845130800,2.642130859375,-1.6927403212189673,1.7738468250662087,-0.08696978812376037
1681147283855202600,2.65220263671875,-1.2063128950595856,1.805314268736541,0.13052866987045852
1681147283865274600,2.662274658203125,-0.5426888270854949,1.6468435163103043,0.2429204657541588
1681147283875346700,2.6723466796875,0.10693827971816063,1.323162327939272,0.23845702007189393
1681147283885418800,2.682418701171875,0.6739759506404399,1.0132603663347661,0.1605651674222201
1681147283895490600,2.692490478515625,1.2579489742726087,0.8702754984624683,0.07039649192560464
1681147283905564000,2.70256396484375,1.732033051687479,0.8885394694276153,0.005023344587348402
1681147283915635700,2.7126357421875,2.001485367873311,0.8714831206865609,-0.10898754039816558
1681147283925707800,2.722707763671875,2.044374661529064,0.7369542387314141,-0.21972864646539092
1681147283935779800,2.73277978515625,1.830833617657423,0.5625672475099563,-0.3520352127285674
1681147283945852000,2.742851806640625,1.5022311933666468,0.5099912570983172,-0.4759490310365334
1681147283955923700,2.752923828125,1.2739759799659252,0.5415145226091146,-0.5564173831107094
1681147283965995800,2.762995849609375,1.1363958937466143,0.5853446042463183,-0.5871748153481632
1681147283976067800,2.77306787109375,1.1621674638628958,0.6878443169951438,-0.4762116640280932
1681147283986140700,2.783140625,1.1610825912356375,0.7183221651062369,-0.27018158030845224
1681147283996212700,2.793212646484375,0.8515484400302171,0.6847406518913806,-0.09581862754970788
1681147284006284800,2.803284912109375,0.32007541896402836,0.5964096036180854,-0.038178010692261156
1681147284016356600,2.813356689453125,-0.2770785732805729,0.5353522005870938,-0.08709558819420635
1681147284026428700,2.8234287109375,-0.6259720904499292,0.6302357392437755,-0.16149726064056158
1681147284036500700,2.833500732421875,-0.8087918328434228,0.7815654608089476,-0.17710786755271254
1681147284046572800,2.84357275390625,-0.9281821823775768,0.8809311133157461,-0.170869046228379
1681147284056644600,2.85364453125,-0.9391431368529796,0.8957417289566248,-0.1956123692754656
1681147284066716700,2.863716552734375,-0.8405962533831596,0.8210880545105784,-0.21337474739402532
1681147284076789500,2.87378955078125,-0.7638625577926635,0.7020972256880254,-0.2011609433133155
1681147284086861800,2.88386181640625,-0.5291887095212936,0.6108259592443704,-0.317255246976763
1681147284096934000,2.893933837890625,-0.16851006201207636,0.4533243441112339,-0.5604739284925162
1681147284107006000,2.904005859375,0.34406887349188325,0.30665669607296586,-0.7044656353197991
1681147284117077800,2.914077880859375,1.022554995033145,0.24533377397358416,-0.6277040288090705
1681147284127149800,2.92414990234375,1.6392220815211533,0.13463394976481793,-0.4452013895407319
1681147284137222000,2.934221923828125,1.9727485182106494,-0.07660334720909595,-0.3037839171156287
1681147284147293700,2.944293701171875,1.9047119238168,-0.2855903810381889,-0.3838013105519116
1681147284157366800,2.95436669921875,1.7623054403543472,-0.322383111384511,-0.6022510231226682
1681147284167438800,2.96443896484375,1.991996239516139,-0.22128727408424018,-0.7788606588296592
1681147284177510700,2.9745107421875,2.391118307188153,-0.5755702292069792,-1.204723653106764
1681147284187582700,2.984582763671875,2.318001048529148,-1.0355934864349663,-1.476107448811829
1681147284197654800,2.99465478515625,1.8892969125419854,-1.3447566123709083,-1.1692564722757786
1681147284207726600,3.0047265625,1.552162222227454,-1.1907600827492772,-0.3854676728615537
1681147284217798700,3.014798583984375,1.8442887270361183,-0.7768582329660654,-0.7694038253068923
1681147284227870700,3.02487060546875,1.590088925039768,-0.3137488462910056,-0.3995465036291629
1681147284237942800,3.03494287109375,0.8750409592986106,-0.3772936822235584,-0.6876837196059524
1681147284248015600,3.045015625,0.41631694810092446,-0.9622146542303264,-2.121734233932942
1681147284258087700,3.055087646484375,0.37195407476127146,-0.6885328837811946,-1.390780843051523
1681147284268159700,3.06515966796875,0.4334463620781898,-0.46492578844726085,-1.0236440323788671
1681147284278231600,3.0752314453125,0.6621124943673611,-0.4384712045028806,-0.7588971904702484
1681147284288303900,3.085303955078125,0.9432833053976297,-0.6121916946396231,-0.4731315259303897
1681147284298376000,3.0953759765625,1.1368284399449824,-0.8403013620898127,-0.1436601367853582
1681147284308447700,3.10544775390625,0.9911585707724094,-1.1094871362939476,0.07074731465727091
1681147284318519800,3.115519775390625,0.5211825131982565,-1.1411406040556729,-0.024903847371041773
1681147284328593000,3.125593017578125,-0.08958850098848342,-1.008239177171886,-0.38713030884414906
1681147284338664700,3.135664794921875,-0.6383633699893951,-0.9090203857898712,-0.6474852724693715
1681147284348736800,3.14573681640625,-0.9234247587174177,-0.8781015159130096,-0.6679631931569426
1681147284358808800,3.155808837890625,-1.1099036081403493,-0.7629179704189301,-0.5404323533955961
1681147284368880600,3.165880615234375,-1.2618290305763482,-0.5898027526989579,-0.2187355437748134
1681147284378952700,3.17595263671875,-1.3333791860491035,-0.44502954010516405,0.18278452494964004
1681147284389024800,3.186024658203125,-1.3691069175124169,-0.2927782467156648,0.47831367780864237
1681147284399096800,3.196096923828125,-1.4644395151108502,-0.16850728553310035,0.6871636412546038
1681147284409168600,3.206168701171875,-1.6007792458802461,-0.2103624138355255,0.7862886168733239
1681147284419241700,3.21624169921875,-1.5667004506677389,-0.2917695080645382,0.5948890429873019
1681147284429313300,3.226313232421875,-1.3103379176795482,-0.3215340933397412,0.27837665026709435
1681147284439385000,3.236385009765625,-1.1183598863184452,-0.3199246123164892,0.17273425557836888
1681147284449457200,3.24645703125,-1.12678050866127,-0.22830489776134488,0.4052775946270674
1681147284459529200,3.256529296875,-1.2774901255667208,0.04142243597358465,0.5964855914637446
1681147284469601300,3.266601318359375,-1.5311094973266124,0.49204146664887666,0.5246669212479144
1681147284479673000,3.276673095703125,-1.710671114706993,0.8720870779290795,0.3898039119675755
1681147284489745200,3.2867451171875,-1.54847739623487,1.1608842921845615,0.18580473128734154
1681147284499817200,3.296817138671875,-1.0518085620462894,1.3369276723109185,-0.03182130774245597
1681147284509890000,3.30689013671875,-0.44181905362606044,1.4037068139895796,-0.19793905865736305
1681147284519962000,3.316962158203125,-0.08789689463973045,1.443873550813645,-0.24459303860887885
1681147284530034200,3.3270341796875,-0.0910883841574192,1.4866235821291804,-0.14972418606467544
1681147284540106000,3.33710595703125,-0.5168962141811847,1.5746645614147186,-0.008656175531214103
1681147284550178000,3.347177978515625,-1.083527057868242,1.669730617031455,0.10372633193433284
1681147284560250000,3.35725,-1.4126029448896646,1.7514694274328648,0.14736785046318546
1681147284570322000,3.367322021484375,-1.407721602588892,1.7597668617874382,0.1673489823434502
1681147284580394000,3.37739404296875,-1.049022730720043,1.7104085182480513,0.16680340422466397
1681147284590467000,3.387467041015625,-0.3968389251708984,1.6124286210112273,0.2121033392187208
1681147284600539000,3.397538818359375,0.3307774302423,1.4770318701803684,0.2959386104427278
1681147284610611000,3.40761083984375,0.7632400419801473,1.301422643687576,0.4518831323269754
1681147284620683000,3.41768310546875,0.8553326347440481,1.120986873821169,0.6318097105622291
1681147284630755000,3.427755126953125,0.7762836479485035,1.0431547154694796,0.7045874350685626
1681147284640827100,3.4378271484375,0.705143826842308,1.0566349592894315,0.6319084947615862
1681147284650899200,3.447899169921875,0.6379822617173194,1.077434586212039,0.5230353014580905
1681147284660971300,3.45797119140625,0.5432751025408507,1.1031611481428145,0.3897727131117135
1681147284671043000,3.46804296875,0.4061345767825842,1.1635989579707384,0.28136319179721175
1681147284681116200,3.4781162109375,0.18681904116272927,1.1751926573917268,0.1576400006905198
1681147284691188200,3.488188232421875,0.033307226318120955,1.1299665913514791,0.08583981597945094
1681147284701260000,3.498260009765625,-0.0029769699841737745,1.0564686628118156,0.051660848328098655
1681147284711332000,3.50833203125,0.11797639108300208,1.0133153113923967,0.006950622855499387
1681147284721404200,3.518404052734375,0.29635084450542926,0.9415142498984932,-0.033064138277247544
1681147284731476000,3.52847607421875,0.29324937135875223,0.8590005096018314,-0.048696810890734195
1681147284741548000,3.538548095703125,0.12082944242656231,0.774231099332869,-0.019788330988213417
1681147284751620000,3.5486201171875,-0.05758943465948105,0.7580489030778408,-0.01920877753458917
1681147284761693000,3.55869287109375,-0.12359715357422828,0.7479092018574476,-0.0433704282362014
1681147284771765000,3.568764892578125,-0.020906009906530378,0.6924608708798885,-0.01730827767550945
1681147284781837000,3.578837158203125,0.16109540184140203,0.6043659694500267,0.06705350620721001
1681147284791908900,3.588908935546875,0.34795126788318154,0.4616523197345435,0.11547361448183655
1681147284801981000,3.59898095703125,0.4808732991635799,0.287046717326343,0.01865823097974062
1681147284812053000,3.609052978515625,0.526442625683546,0.12820625480487943,-0.10386084503419697
1681147284822125000,3.619125,0.5340659601688384,-0.03888867971226573,-0.2244556019220501
1681147284832196900,3.62919677734375,0.6396195075303316,-0.18086159406304358,-0.3205274735804647
1681147284842270200,3.639270263671875,0.9212374778062105,-0.25852628689333795,-0.3147773856211453
1681147284852342000,3.649342041015625,1.217725684955716,-0.35978885906264185,-0.13722235882282258
1681147284862414000,3.6594140625,1.4809212788343429,-0.5835317096054554,-0.12616649260558188
1681147284872486100,3.669486083984375,1.7450754886120556,-0.7614807772226632,-0.08654394566081464
1681147284882558200,3.67955810546875,1.7330173865497112,-0.9861991947993636,-0.06890329422578215
1681147284892630000,3.689630126953125,1.5579945816427467,-1.14811614215672,-0.12229746915251016
1681147284902702000,3.6997021484375,1.3423638720154762,-1.1946449613586068,-0.21912417776621876
1681147284912774100,3.709774169921875,1.1904214984446764,-1.1514338884025812,-0.2498416798520833
1681147284922846000,3.719845947265625,1.0981792680770157,-1.0923019004762171,-0.12742014592848716
1681147284932919000,3.7299189453125,0.9585001637518406,-1.0493347192786633,0.048661301185935736
1681147284942991000,3.7399912109375,0.6871645180374384,-1.0154970393456517,0.11033603239767253
1681147284953063000,3.75006298828125,0.46580432484745976,-1.0802319618456064,-0.014451646135374903
1681147284963135000,3.760135009765625,0.31714521073102947,-1.290958971209824,-0.290671483694762
1681147284973207000,3.77020703125,0.1684784978300333,-1.4675027020737528,-0.5524302131706849
1681147284983279000,3.780279052734375,-0.07041676752865314,-1.585377240217477,-0.7064006950356065
1681147284993351000,3.790350830078125,-0.4514338541895151,-1.6382545516632496,-0.7393197988189757
1681147285003423000,3.800423095703125,-0.9397323349177836,-1.651019925212115,-0.7254484367895871
1681147285013495000,3.8104951171875,-1.479710734000802,-1.5301460591219365,-0.48725229614358395
1681147285023568100,3.820568115234375,-1.871951225465536,-1.1812509345173836,-0.14412304158937186
1681147285033640200,3.83064013671875,-1.9263170219033956,-0.8599388133652508,0.22547654246762394
1681147285043712300,3.840712158203125,-1.831391251540184,-0.6939937795355916,0.5748110814027488
1681147285053784000,3.8507841796875,-1.591851843059063,-0.6695955435991287,0.7552746160589158
1681147285063856000,3.860856201171875,-1.2883067031353712,-0.7001293596811592,0.7912983347941189
1681147285073928200,3.87092822265625,-1.016392965272069,-0.8006060421697795,0.7122875611171126
1681147285084000000,3.881,-0.7841612494558096,-0.8871306986082345,0.6238168121121823
1681147285094072000,3.891072021484375,-0.5065864170908928,-0.900960121192038,0.5783098833039403
1681147285104145200,3.901145263671875,-0.5040718039214611,-0.7740591037668287,0.5736216889550909
1681147285114217000,3.911217041015625,-0.7996271141350269,-0.5549285693250596,0.6252127965152263
1681147285124289000,3.9212890625,-1.1659183408290148,-0.4101550644703209,0.5576163105716928
1681147285134361000,3.931361083984375,-1.443563315820694,-0.33725232534483074,0.3426677745223045
1681147285144433000,3.941432861328125,-1.5204332050114868,-0.2982663227379322,0.06504848196115344
1681147285154505000,3.9515048828125,-1.3511907370716332,-0.23836335043907164,-0.1527550416605547
1681147285164577000,3.961576904296875,-1.0506237361758948,-0.1844949821293354,-0.14425949091799556
1681147285174649000,3.971649169921875,-0.8026245423853396,-0.07787643588483333,0.059206984824757086
1681147285184721000,3.981720947265625,-0.7832645928770303,0.06937938730493187,0.3255418676763773
1681147285194794200,3.991794189453125,-0.9318249227941036,0.24126886262223124,0.4872912764471024
1681147285204866000,4.001865966796875,-1.242380818262696,0.5100283742383123,0.49638387976735826
1681147285214938000,4.011938232421875,-1.6436346372663975,0.856856848636642,0.43611324319988487
1681147285225010200,4.02201025390625,-2.092736833637953,1.2502411763742565,0.38811095391195266
1681147285235082200,4.032082275390625,-2.435682840579748,1.6077140135794876,0.3617182196900248
1681147285245154000,4.042154052734375,-2.574717217260599,1.9837606183513998,0.31128826486375183
1681147285255226000,4.05222607421875,-2.430406946003437,2.244073496400565,0.25831640700232233
1681147285265298200,4.062298095703125,-1.9735241787582636,2.348142942684144,0.17904259847495704
1681147285275370200,4.072370361328125,-1.311839554414153,2.2619126660823823,0.08442589406091719
1681147285285443000,4.082443115234375,-0.46062896803617476,2.076217514383048,-0.0032781357546802607
1681147285295515100,4.09251513671875,0.38851942511498927,1.8160611420698463,-0.0015147839105455203
1681147285305587000,4.1025869140625,1.0990338390797376,1.5287011210106312,0.10730097555071115
1681147285315659000,4.112658935546875,1.604459395697713,1.3104822945863008,0.2769615227721631
1681147285325731000,4.12273095703125,1.6973340787500142,1.1698359526641666,0.27366715740188957
1681147285335803100,4.13280322265625,1.3929665165275333,1.0736071368783713,0.006954422247782349
1681147285345875000,4.142875,1.0095862078666686,1.0444181595340372,-0.2808774541068822
1681147285355947000,4.152947021484375,0.7523276028215885,1.000352661705762,-0.5636183639980852
1681147285366019800,4.163019775390625,0.605024579489231,0.9640065060831606,-0.6865169408489018
1681147285376092000,4.173091796875,0.5762701941698789,0.9774076933175325,-0.6500044887486844
1681147285386164200,4.183164306640625,0.6204921977341175,0.9877291808456182,-0.46855808053500947
1681147285396236300,4.193236328125,0.7229600540399551,1.0310717712268234,-0.21628371190959586
1681147285406308000,4.20330810546875,0.9212982680827378,1.1184883350037038,-0.011367160656116902
1681147285416380200,4.213380126953125,1.1687298911184072,1.199814472950995,0.05754267290830612
1681147285426452200,4.2234521484375,1.4618261177420615,1.2361807945787906,0.13930077253207562
1681147285436524800,4.23352490234375,1.697809879568219,1.1834371925152838,0.26096184347718954
1681147285446596900,4.243596923828125,1.8211469209015367,1.0654764373928307,0.3292158800140023
1681147285456670000,4.253669921875,1.859123892596364,0.9611379649095236,0.2385026858445257
1681147285466742000,4.263741943359375,1.729323208206892,0.8569000301912426,0.027784298178181052
1681147285476814000,4.27381396484375,1.4526526312053203,0.7573271646745503,-0.14615838334187864
1681147285486886100,4.28388623046875,1.194991290578246,0.6647165393859148,-0.29966406070664525
1681147285496958000,4.2939580078125,1.0270955610722303,0.5481361327059566,-0.2891035037256777
1681147285507030000,4.304030029296875,0.9628712184429168,0.44851855126470325,-0.24216215820014475
1681147285517102000,4.31410205078125,0.9903794030934572,0.4024129259109497,-0.18635701314155012
1681147285527174000,4.324173828125,1.0948515849590301,0.29609131678640843,-0.09033815031200647
1681147285537246000,4.334245849609375,1.1768974154829979,0.19065292023718355,0.01263590195029974
1681147285547319000,4.344319091796875,1.242464989414811,0.11001403390169143,0.08594882931187749
1681147285557390800,4.354390869140625,1.3122510578244924,0.03411255135163665,0.14763810050562023
1681147285567463000,4.364462890625,1.3112199612110853,-0.0743542531080544,0.16046740613617003
1681147285577535000,4.374534912109375,1.229686171862483,-0.1894629798002541,0.12257270589731632
1681147285587606800,4.384606689453125,1.0466250219285487,-0.31375863703265783,-0.0046721930621191855
1681147285597678800,4.394678955078125,0.7850450465530157,-0.4785160685129463,-0.1827973113659769
1681147285607751000,4.4047509765625,0.573552751904726,-0.5871548685386777,-0.29652784504014995
1681147285617823000,4.414822998046875,0.45629590726792807,-0.5882131454199552,-0.3233857125557959
1681147285627894800,4.424894775390625,0.40912908242344853,-0.4970435127198696,-0.22761786534525452
1681147285637968100,4.434968017578125,0.35998072837293144,-0.38416853642910714,-0.10889847387522458
1681147285648040000,4.4450400390625,0.31104981646537777,-0.27431509991660713,-0.08383826689869164
1681147285658112000,4.455112060546875,0.16522504899203777,-0.2391778816923499,-0.16852657475546
1681147285668184000,4.46518408203125,-0.07440320681631565,-0.292024505738914,-0.2824646502330899
1681147285678256000,4.475256103515625,-0.29537469294965263,-0.37944837603941556,-0.41686322033945467
1681147285688328000,4.485327880859375,-0.3840460790932178,-0.38379590372443195,-0.5725559228871018
1681147285698400000,4.49539990234375,-0.361561275562644,-0.36337285502925515,-0.7278218879226594
1681147285708472000,4.50547216796875,-0.28431787688434124,-0.3518009290486574,-0.7862944620922208
1681147285718545000,4.515544921875,-0.15208967308700083,-0.3132628163397312,-0.7038978453692049
1681147285728617000,4.525616943359375,-0.1591144571572542,-0.34830782623589035,-0.5450886547688395
1681147285738689000,4.53568896484375,-0.3017249387592077,-0.3279544817760587,-0.3630876814123243
1681147285748760800,4.5457607421875,-0.5567711284518242,-0.21523118891566992,-0.28006964485533536
1681147285758833000,4.5558330078125,-1.011961704826355,-0.18299188409000633,-0.3026788784831762
1681147285768905000,4.565905029296875,-1.4307850827902555,-0.26481296594738957,-0.41706418627165254
1681147285778977000,4.57597705078125,-1.5444202297985552,-0.330204891051352,-0.5310039422497153
1681147285789048800,4.586048828125,-1.311742523780465,-0.3279857536971569,-0.6214695183336735
1681147285799121000,4.596120849609375,-0.9446598544478416,-0.20587460089698434,-0.44077071361690756
1681147285809193700,4.60619384765625,-0.7367308052390813,-0.09674714057147503,-0.19253208504728972
1681147285819265800,4.616265869140625,-0.6965478479325771,-0.01650894399136305,-0.12980484910793602
1681147285829337900,4.626337890625,-0.5865507651656866,0.07870353435873985,-0.313737886505574
1681147285839410000,4.636409912109375,-0.4585843104660511,0.13259513741359114,-0.5307909570861608
1681147285849482000,4.64648193359375,-0.5070733238250017,0.1416241009131074,-0.5523443980507552
1681147285859554000,4.656553955078125,-0.7593313441038131,0.21585735798999667,-0.33706812788434326
1681147285869626000,4.666626220703125,-0.9961012878715991,0.4960770057752728,-0.08707381475381552
1681147285879698000,4.676697998046875,-1.1141811393290757,0.9259063464000821,0.06876622384265065
1681147285889770000,4.68677001953125,-1.074862689897418,1.3092730649270117,0.052327130217105146
1681147285899843000,4.696843017578125,-0.9827028771162033,1.5147138044513762,-0.07555982950553297
1681147285909915000,4.706914794921875,-0.9149801709771156,1.5720143391668795,-0.35822869707383215
1681147285919987000,4.716987060546875,-0.7494558467775583,1.515855375701934,-0.7776867196794599
1681147285930059000,4.72705908203125,-0.5096779533654451,1.341122055260837,-1.073929354570061
1681147285940131000,4.737131103515625,-0.2284697329342365,1.1000715115644037,-1.1433543345823884
1681147285950203000,4.747202880859375,-0.00940904885828495,0.9205682002425193,-0.9796277805197984
1681147285960275000,4.75727490234375,-0.0014326631516218184,0.9432835976585745,-0.7727364037957042
1681147285970347000,4.767346923828125,-0.12705343150794504,1.1693646818906067,-0.7246154200315476
1681147285980418800,4.777418701171875,-0.11841536702215671,1.4538988318741322,-0.832409001404792
1681147285990492000,4.787491943359375,0.01697159306704998,1.6233473437801003,-1.002350995916128
1681147286000564000,4.79756396484375,0.22799627020359037,1.6466824805296956,-1.059239954156056
1681147286010635800,4.8076357421875,0.4994289465516805,1.5383639984995126,-1.0540116981137544
1681147286020707800,4.817707763671875,0.7414905669867992,1.4021201293200254,-0.9861701879005879
1681147286030780000,4.82777978515625,0.9182903184384107,1.2836170840144157,-0.9385665060088038
1681147286040851700,4.837851806640625,1.1030834067314863,1.1909830778501926,-0.914892638824135
1681147286050924000,4.847924072265625,1.1341314559459685,1.1384756226301194,-0.8315064265418797
1681147286060996000,4.85799609375,1.0022311689287424,1.155205954287201,-0.783070750805363
1681147286071068200,4.868068115234375,0.7301157710134982,1.245985857017338,-0.7329318513475358
1681147286081141000,4.87814111328125,0.3734726626306772,1.4014248405322431,-0.7826311903443187
1681147286091213000,4.888213134765625,0.15308102221190928,1.5634525547876954,-0.9402746981661766
1681147286101284900,4.898284912109375,0.059845689153671264,1.6548825919896364,-1.092002698333934
1681147286111357000,4.90835693359375,-0.048180970323085784,1.4971628040611744,-1.2171078453183173
1681147286121429000,4.918428955078125,-0.11710253085792063,1.2917781786382199,-1.388936822620034
1681147286131501000,4.9285009765625,-0.19332886144816874,1.1221136858940124,-1.5626833239808677
1681147286141572900,4.93857275390625,-0.3643430152356624,1.0867737847045063,-1.6871199971191584
1681147286151645000,4.94864501953125,-0.6135305420279502,1.2092905956961213,-1.7176969216905533
1681147286161717000,4.958717041015625,-0.951136356985569,1.4153617420785127,-1.628818614798039
1681147286171789800,4.968789794921875,-1.257689446553588,1.6164662059642374,-1.4237588374152779
1681147286181862000,4.97886181640625,-1.42180624204278,1.7465531599491833,-1.1795855585884303
1681147286191934000,4.988933837890625,-1.410291160815954,1.8261881299391387,-1.027446931793168
1681147286202005800,4.999005859375,-1.35425538533926,1.8325638024508952,-1.0264372432939708
1681147286212077800,5.009077880859375,-1.2191092482686041,1.7870586272083222,-1.0751910450689495
1681147286222150000,5.01914990234375,-0.9809767839759588,1.7159842725537717,-1.1593792213838547
1681147286232222000,5.029221923828125,-0.6845172183990478,1.5764965991474686,-1.2247654473993927
1681147286242293800,5.039293701171875,-0.28181495415270325,1.4813202150240539,-1.3017026296727359
1681147286252367000,5.0493671875,0.22674013266265391,1.3405620832905172,-1.2915611748866735
1681147286262439000,5.05943896484375,0.580859860047698,1.1348103781208396,-1.2271715586930512
1681147286272511000,5.069510986328125,0.8932230971992016,0.9864632525630295,-1.1567650202974677
1681147286282583000,5.0795830078125,1.0727473051786423,0.9299529914423823,-1.017042149895802
1681147286292655000,5.089655029296875,1.1232423976629973,1.0341333507545292,-0.7890132195316255
1681147286302727000,5.099726806640625,1.0768196691840886,0.9878311799153685,-0.7380475869260728
1681147286312799000,5.109799072265625,1.0237164400279521,0.8597457750111818,-0.7634002740431577
1681147286322871000,5.11987109375,1.0506576384454964,0.7753387683138251,-0.8110271906800568
1681147286332942800,5.12994287109375,1.1372346826583146,0.68903586486727,-0.852656035945937
1681147286343016000,5.140015869140625,1.1009686065346003,0.7443617385089397,-0.814473604806885
1681147286353088000,5.150087890625,0.9938660761654377,0.886467193198204,-0.7751170883871614
1681147286363159800,5.160159912109375,0.7550152344703673,0.9834861364483832,-0.7793399667792021
1681147286373231900,5.17023193359375,0.28328385766148567,1.0708628066062926,-0.7409153243821114
1681147286383304000,5.180303955078125,-0.23356559476852415,1.1797501745656132,-0.7535392436336725
1681147286393376000,5.1903759765625,-0.6294546718686819,1.3631316424950957,-0.8067042859796434
1681147286403447800,5.20044775390625,-0.8898363773703575,1.5445339193060994,-0.8219383877296
1681147286413520000,5.210519775390625,-1.1022463713854551,1.6657909394949673,-0.8152646090541035
1681147286423592000,5.220592041015625,-1.1745628350555897,1.8034863226570188,-0.7523472573701292
1681147286433664300,5.230664306640625,-1.1300935787320137,1.892849490457028,-0.6381668975692242
1681147286443736300,5.240736328125,-1.138890048649907,2.0104528104439376,-0.5147209890339524
1681147286453808400,5.250808349609375,-1.2168208450704812,2.181492683194578,-0.4483214943226427
1681147286463880200,5.260880126953125,-1.2099573890417814,2.3641870456427334,-0.4454974498778581
1681147286473952300,5.2709521484375,-1.1296604480117558,2.4727491271704434,-0.49812531660720705
1681147286484024300,5.2810244140625,-1.1325666908472776,2.4789742852956054,-0.5420286826763302
1681147286494096400,5.291096435546875,-1.1127215881705284,2.422811960829794,-0.6465440460965037
1681147286504168200,5.301168212890625,-1.063152378359437,2.340693795721978,-0.7752206948921084
1681147286514240300,5.311240234375,-0.9732605105102061,2.258347520946711,-0.8795504726123065
1681147286524313000,5.32131298828125,-0.8557266024976968,2.188691508657485,-0.9441093809582293
1681147286534385200,5.33138525390625,-0.7583616222888231,2.191189609083533,-1.027404919282347
1681147286544457200,5.341457275390625,-0.7074930203169584,2.2905406485430895,-1.045635645565018
1681147286554529300,5.351529296875,-0.8074322349280119,2.3911308744087814,-1.0961856100417673
1681147286564601000,5.36160107421875,-1.053401968717575,2.5355063198566437,-1.1027931185480206
1681147286574673200,5.371673095703125,-1.3120616727322338,2.7461265078455206,-1.1428094871159642
1681147286584745200,5.3817451171875,-1.4274784424602984,2.9673616133511063,-1.1630652894854545
1681147286594817300,5.3918173828125,-1.3624439524918794,3.1342253694608804,-1.0904150638163088
1681147286604889000,5.40188916015625,-1.1661878054201602,3.143851860462129,-0.9623093467764556
1681147286614962400,5.41196240234375,-0.8676876739263534,3.125606594197452,-0.8378650748535991
1681147286625034200,5.4220341796875,-0.5813099419027566,3.0029850076571103,-0.7769337093550711
1681147286635106300,5.432106201171875,-0.3158247757822275,2.837571450355649,-0.7443113234959542
1681147286645178400,5.442178466796875,0.00718260498046875,2.7007202629327773,-0.7067352607522159
1681147286655250400,5.45225048828125,0.25217735625803467,2.584873869615793,-0.6848727538384497
1681147286665322200,5.462322265625,0.4068289887875318,2.449590369901061,-0.7376515002805739
1681147286675394300,5.472394287109375,0.4543962111264467,2.281914274495095,-0.8292909424494952
1681147286685466400,5.48246630859375,0.36607962976992126,2.1810792800880967,-0.9338131009366363
1681147286695538200,5.4925380859375,0.3459136245757341,2.146074309941381,-1.0585368473879992
1681147286705611300,5.502611328125,0.3822685480266809,2.0977498394943774,-1.0642156236767768
1681147286715683300,5.512683349609375,0.48044776722788807,1.9928500798664985,-1.0635463461130856
1681147286725755100,5.522755126953125,0.5552396811008453,1.9016146884538232,-1.0020694024957715
1681147286735827200,5.5328271484375,0.4927554601371288,1.8556506635278462,-0.9297100495319813
1681147286745899300,5.542899169921875,0.384422511190176,1.7792789331175385,-0.9541820082917809
1681147286755971000,5.55297119140625,0.14215630809366703,1.692829606937617,-1.0181561024870722
1681147286766043100,5.563043212890625,-0.08852408662736415,1.6728751986674963,-1.0851533438958227
1681147286776115200,5.573115234375,-0.2141226431518793,1.7138108740374445,-1.0962800103269517
1681147286786187300,5.583187255859375,-0.3202297327429056,1.765669217699021,-1.0892399556223302
1681147286796260000,5.593260009765625,-0.4589660032600164,1.783505903162807,-1.0773710194565356
1681147286806332400,5.60333251953125,-0.5806780737400055,1.7510799897238611,-1.0754118482127786
1681147286816404200,5.613404296875,-0.6168342597484588,1.6349898507788776,-1.0739601880997418
1681147286826476300,5.623476318359375,-0.6701221978217363,1.5044745883792638,-1.0274311497021467
1681147286836548400,5.63354833984375,-0.6875690071851015,1.399847215951979,-0.9066616938345133
1681147286846620400,5.643620361328125,-0.6444722082585096,1.3769761895827948,-0.7793251345362514
1681147286856692200,5.653692138671875,-0.5719833106309176,1.3514920581057668,-0.6218936620298773
1681147286866764300,5.663764404296875,-0.5473094726234674,1.2649134064577519,-0.5417273616421967
1681147286876836400,5.67383642578125,-0.4862701897710561,1.2158480545155703,-0.5312391392450779
1681147286886909200,5.6839091796875,-0.4252186319589615,1.1565060771003366,-0.586632013708353
1681147286896981200,5.693981201171875,-0.46167000152170656,1.0562344156645238,-0.6449510778166353
1681147286907053300,5.70405322265625,-0.5260527495831251,0.9281316212341189,-0.6453014256242662
1681147286917125000,5.714125,-0.6498842964351177,0.7466361131817102,-0.6155172588657587
1681147286927197200,5.724197265625,-0.8688865283221006,0.5961421848535537,-0.5728287484791129
1681147286937269200,5.734269287109375,-0.9927262584805489,0.5482362320795655,-0.5321661544295028
1681147286947341300,5.74434130859375,-1.0037228687912225,0.5265924094177782,-0.508932432227768
1681147286957413000,5.7544130859375,-0.8775210856765508,0.5160436890050768,-0.49083559799045323
1681147286967486200,5.764486328125,-0.7208493454962969,0.4294732206635177,-0.48510030574146656
1681147286977558000,5.77455810546875,-0.6153437289297581,0.2628651928804815,-0.42920331768095493
1681147286987630000,5.784630126953125,-0.5348094720125198,0.14516308869421482,-0.4161374268155545
1681147286997702100,5.7947021484375,-0.4750491230547428,0.09637582304105162,-0.3953590618766844
1681147287007774500,5.8047744140625,-0.44433834297060965,0.09315846842974423,-0.3322853871198371
1681147287017846300,5.81484619140625,-0.4508768048286438,0.07983926039040089,-0.20552450881768017
1681147287027918300,5.82491845703125,-0.4720037640094757,0.022758067514002323,-0.114210170417279
1681147287037990400,5.834990478515625,-0.4531453342825174,0.036730478765070435,-0.044677528779394925
1681147287048062200,5.845062255859375,-0.416371893158555,0.009925327817350626,-0.029629560718685388
1681147287058134300,5.85513427734375,-0.42978433243930336,-0.03850727917924523,-0.047070963254570955
1681147287068207400,5.865207275390625,-0.4656903430789709,-0.07645663221478462,-0.05087711407188326
1681147287078279200,5.875279052734375,-0.4996399589538574,-0.12603957829028367,-0.033942053622938693
1681147287088351200,5.885351318359375,-0.47478842629194257,-0.08697086583599448,0.00181274851039052
1681147287098423300,5.89542333984375,-0.44219080954790113,-0.034222295336425304,0.054344424856267864
1681147287108495400,5.905495361328125,-0.4243371729493141,-0.01589241952821612,0.12171561414394527
1681147287118567200,5.915567138671875,-0.3685708620637655,-0.07907455962821841,0.18457352725826204
1681147287128639200,5.92563916015625,-0.3504845857530832,-0.15742971894070504,0.18728866796847432
1681147287138711300,5.935711181640625,-0.2716816826730966,-0.25487010247334835,0.09570654547736047
1681147287148783000,5.945783203125,-0.2543874335229397,-0.38032179787307974,-0.05545059599988162
1681147287158856200,5.955856201171875,-0.26577333541214465,-0.4681513263650238,-0.15750468387305736
1681147287168928300,5.96592822265625,-0.2019359462738037,-0.49173722300529477,-0.11107326063103973
1681147287179000000,5.976,-0.041083705538511275,-0.4029340271756053,0.06495894051417708
1681147287189072100,5.986072021484375,0.12775485777556894,-0.2234245783738792,0.21391111929304896
1681147287199144200,5.996144287109375,0.18548925386369228,-0.05176993472576141,0.3672442165698856
1681147287209216000,6.006216064453125,0.05211246455311775,0.061963265829533334,0.40426644482314583
1681147287219288300,6.016288330078125,-0.1222545067936182,0.11894669741988181,0.30566885407939554
1681147287229360400,6.0263603515625,-0.17713292892873286,0.11936126957014202,0.16697927224822343
1681147287239432400,6.036432373046875,-0.10924188048541546,0.1125076042830944,0.008670505450665951
1681147287249505300,6.04650537109375,-0.04309796797037124,0.1236135201871395,-0.06504917608089744
1681147287259577300,6.056577392578125,-0.12096154437363148,0.19385186240896582,-0.06913330358937382
1681147287269649200,6.066649169921875,-0.18627134415209293,0.3034687136866152,-0.07976758339367807
1681147287279721200,6.07672119140625,-0.05150806891918182,0.40363530731275676,-0.042181949103996155
1681147287289793300,6.086793212890625,0.147272043672204,0.4357113844007253,-0.03479994909390807
1681147287299865300,6.096865234375,0.3630202421993017,0.40852848618179555,-0.08292692420743406
1681147287309937200,6.106937255859375,0.5700795228362083,0.3708715402215719,-0.0989815485600382
1681147287320009200,6.11700927734375,0.7661977227419614,0.36885055578798054,0.013817293754592537
1681147287330081300,6.127081298828125,0.9754828627347946,0.38937531129196284,0.1770926699835807
1681147287340154000,6.137154052734375,1.0694710599869488,0.4135676493927836,0.3132815210402012
1681147287350226200,6.14722607421875,1.0491688611924648,0.4607987716451287,0.36560010262466963
1681147287360298200,6.15729833984375,0.9271253668010234,0.4169362490430474,0.14563925483860074
1681147287370370000,6.1673701171875,0.7098591649264097,0.3329552126727998,-0.14551694363318382
1681147287380442000,6.177442138671875,0.4633902494430542,0.20167583403289316,-0.3761536453429609
1681147287390514200,6.18751416015625,0.2696095525741577,0.12835779210478065,-0.4034136273860931
1681147287400586200,6.197586181640625,0.1267255147278309,0.14018442349880933,-0.3784461401943117
1681147287410658000,6.207657958984375,-0.012473112604022025,0.23249285097047684,-0.29705358594730497
1681147287420730400,6.21773046875,-0.12678338239490985,0.35696430316120387,-0.20080467722155151
1681147287430803200,6.22780322265625,-0.2634966226518154,0.4914823714613914,-0.0693181586369872
1681147287440875300,6.237875244140625,-0.28063363541364666,0.6589689356446266,0.09082564156800509
1681147287450947300,6.247947265625,-0.22221593323647976,0.865736685989052,0.2538684511501342
1681147287461019400,6.258019287109375,0.002246317622065544,1.0444969238586723,0.41447124716900285
1681147287471091200,6.26809130859375,0.32715047191679475,1.0389961344853043,0.5788368297874927
1681147287481163300,6.278163330078125,0.6685527565479278,0.8308838376641273,0.7004316305633634
1681147287491235300,6.2882353515625,0.8608388309448957,0.4734183069825172,0.8000134100388735
1681147287501307100,6.29830712890625,0.8877139783889054,0.11740355963110922,0.8619039028931409
1681147287511379200,6.308379150390625,0.9704916303187608,-0.15123831695467232,0.8291421085633337
1681147287521451300,6.318451171875,1.119314995086193,-0.24259879605174064,0.731272539833188
1681147287531524000,6.328524169921875,1.1909493217110634,-0.20761603773683307,0.6070848730199039
1681147287541596200,6.33859619140625,1.137265662318468,-0.13026070311665533,0.49705673752762375
1681147287551668200,6.348668212890625,1.0412158563613891,-0.06918079599291085,0.41946876319535076
1681147287561740000,6.358739990234375,0.9938666606873273,-0.03603752806484699,0.3503765222687274
1681147287571812000,6.36881201171875,0.9072977997809648,-0.027034721919894217,0.31100152034424244
1681147287581884200,6.37888427734375,0.8379542144417762,-0.047664545233547684,0.3172696408282965
1681147287591956200,6.388956298828125,0.9364104970186948,-0.1321317576855421,0.32150954342037436
1681147287602028000,6.399028076171875,1.1838602402329443,-0.24783377409577367,0.3016574995461851
1681147287612101400,6.409101318359375,1.4319558801352976,-0.4072857926443219,0.22534005660638212
1681147287622173200,6.419173095703125,1.4155582875639199,-0.5855088548973202,0.13703859975375235
1681147287632245200,6.429245361328125,1.1337164454042912,-0.787506175969541,0.16989983587004243
1681147287642317300,6.4393173828125,0.7420061152935028,-0.8368494680702686,0.278779239718616
1681147287652389400,6.449389404296875,0.46018297783434386,-0.6953121686577797,0.3909329159975052
1681147287662461200,6.459461181640625,0.34461423241496086,-0.4358412943907082,0.5525959616590291
1681147287672533200,6.469533203125,0.3207043645173311,-0.21754706464260815,0.8482877577338367
1681147287682605300,6.479605224609375,0.2816413511514664,-0.08192527288421989,1.1462680300720036
1681147287692677400,6.489677490234375,0.2516413496851921,0.03809650642126798,1.3465607391834258
1681147287702749200,6.499749267578125,0.3355278396397829,0.060230304557085036,1.2982641796566545
1681147287712822300,6.509822265625,0.41504093681573867,-0.14384513796344398,1.0790549539554863
1681147287722894000,6.51989404296875,0.4627180492699146,-0.4466811067044735,0.8642053847685456
1681147287732966100,6.529966064453125,0.5973673427343368,-0.6577763648591936,0.668291475263238
1681147287743038200,6.5400380859375,0.7431435948908328,-0.8091158041007817,0.5761836849302053
1681147287753110300,6.5501103515625,0.8627817817062139,-0.86738153058663,0.625166911546886
1681147287763182000,6.56018212890625,0.9635317281782626,-0.8309612868145108,0.6675971363235265
1681147287773254100,6.570254150390625,1.0350842217385767,-0.8233679090760648,0.7240623161934315
1681147287783326200,6.580326171875,1.016079661539197,-0.8107888518795371,0.7322180770549923
1681147287793398000,6.59039794921875,0.9681009357899427,-0.7731596707090735,0.6283670227624476
1681147287803471400,6.600471435546875,0.8960258796602487,-0.773249248688668,0.3984646997418254
1681147287813543400,6.61054345703125,0.8835755634099245,-0.9057001553259789,0.0630046646412462
1681147287823615200,6.620615234375,0.9540700723499059,-1.08184816487059,-0.27755240133740006
1681147287833687300,6.630687255859375,1.0113713377177715,-1.2412158661365509,-0.4843162061590701
1681147287843759400,6.64075927734375,1.017610524368286,-1.3363453423783183,-0.5296335306793452
1681147287853831200,6.6508310546875,1.0791513270020485,-1.2219624457426368,-0.38474980691578237
1681147287863903200,6.6609033203125,1.1262608687013387,-0.976716788443923,-0.15740516902133822
1681147287873975300,6.670975341796875,1.0543576620072126,-0.7063920733377337,0.05558408618643879
1681147287884047400,6.68104736328125,0.875295810842514,-0.4979786016128957,0.23353045038990675
1681147287894119200,6.691119140625,0.8240390863358974,-0.43549964134618635,0.4390701567767188
1681147287904192300,6.701192138671875,0.7921364661186933,-0.3718403852537274,0.4330561571842059
1681147287914264300,6.711264404296875,0.8709978213876486,-0.4261161653205752,0.36458405744992195
1681147287924336000,6.721336181640625,0.8723106575518846,-0.5972589139237999,0.4044566336330026
1681147287934408200,6.731408203125,0.7814899844199419,-0.8764378204844891,0.2836123772297986
1681147287944480300,6.741480224609375,0.6399298886537551,-1.230245851571858,0.01008961500097066
1681147287954552000,6.751552001953125,0.5556774879962205,-1.4265112048633395,-0.24536367592150343
1681147287964624100,6.7616240234375,0.6050199033141136,-1.497934811346978,-0.44113728190697726
1681147287974696200,6.7716962890625,0.5658809021025896,-1.5308467547371982,-0.35167332061361517
1681147287984768300,6.781768310546875,0.3771066352188587,-1.4647078106582163,-0.07179174567628652
1681147287994841300,6.79184130859375,0.15487901154458522,-1.335383511608839,0.23490177527572959
1681147288004913400,6.801913330078125,-0.02369184123277664,-1.1776974798195063,0.43402598859705027
1681147288014985200,6.811985107421875,-0.07297872697114945,-1.0280563689284026,0.532901665629819
1681147288025057300,6.822057373046875,-0.005885550907254219,-0.9566906301118433,0.4959377069024369
1681147288035129300,6.83212939453125,0.017939561316370964,-1.0590637938715517,0.40904118494428693
1681147288045201400,6.842201416015625,-0.12231880420148372,-1.2835989638358354,0.32239838201887905
1681147288055273200,6.852273193359375,-0.39993279953300953,-1.4820828699596225,0.19488507791422308
1681147288065345300,6.86234521484375,-0.6485013176441192,-1.607809436777979,-0.03822630681339651
1681147288075417300,6.872417236328125,-0.8448182549923657,-1.6299198540382087,-0.3776642691016197
1681147288085490200,6.882490234375,-1.003753848451376,-1.4782551283650098,-0.6974976960033178
1681147288095562200,6.892562255859375,-1.1480822398871182,-1.3522732716113328,-0.8672988207392394
1681147288105634300,6.90263427734375,-1.2314753933668137,-1.3017346322461962,-0.7217334348544479
1681147288115706000,6.9127060546875,-1.1281336768358945,-1.1744525065489113,-0.5741804918816312
1681147288125778200,6.922778076171875,-0.8224673069745302,-0.8547365685470402,-0.6044241293780506
1681147288135850200,6.932850341796875,-0.5110778832912445,-0.5913289393529295,-0.6217329915754497
1681147288145922300,6.94292236328125,-0.34417876360714433,-0.5138216290414334,-0.6571035801641643
1681147288155994000,6.952994140625,-0.4733160156518221,-0.5251389957390725,-0.6206422737292945
1681147288166066200,6.963066162109375,-0.799680890148878,-0.49967269217967986,-0.46927214708849785
1681147288176138200,6.97313818359375,-1.0208271483272313,-0.33082667621150613,-0.3892397752787918
1681147288186211300,6.98321142578125,-1.205974456885457,-0.06426891242340206,-0.41386502490416166
1681147288196283400,6.993283447265625,-1.3977075735747813,0.2503977793648839,-0.4518827670007944
1681147288206355500,7.00335546875,-1.550377676898241,0.5288482255205512,-0.5783120021957904
1681147288216427300,7.01342724609375,-1.7189280709207058,0.7461240720063448,-0.7160805236592889
1681147288226499300,7.023499267578125,-1.8337258319675922,0.8955188069209455,-0.739631495116651
1681147288236571400,7.0335712890625,-1.8678437901467084,1.0098697009831665,-0.6966589801568538
1681147288246643200,7.043643310546875,-1.8297417307674884,1.1143962433844805,-0.5638154209401458
1681147288256715300,7.05371533203125,-1.5943910061478614,1.2413007679410277,-0.3714172644708305
1681147288266787300,7.063787353515625,-1.1168500662773846,1.3707400716722011,-0.17347221446409822
1681147288276859400,7.073859375,-0.5724462519675493,1.4995610973745583,-0.013691913809254764
1681147288286932200,7.08393212890625,-0.018608838880062102,1.5213640561208128,0.12418350209482014
1681147288297004300,7.09400439453125,0.36221652460098264,1.3428054783031345,0.20682525268532334
1681147288307076000,7.104076171875,0.5216717580199242,1.0730677693046629,0.22631525831408797
1681147288317148200,7.114148193359375,0.6409013640344142,0.8947570287682115,0.10201748218983411
1681147288327220200,7.12422021484375,0.7645382650971412,0.7925368636131286,-0.1876861063208431
1681147288337292300,7.134292236328125,0.7971183461844921,0.7147887302830815,-0.5728748891757801
1681147288347364000,7.144364013671875,0.6243067875862122,0.6296458105266094,-0.7728668252423405
1681147288357436200,7.154436279296875,0.3971984061330557,0.574726617989689,-0.8173724680535495
1681147288367508200,7.16450830078125,0.27691782976090906,0.6094903267264365,-0.7745280364528297
1681147288377581000,7.1745810546875,0.25118542261123655,0.7188757073357701,-0.6316752705276012
1681147288387653400,7.1846533203125,0.23941665888428687,0.8049316502839327,-0.4095480384878814
1681147288397725400,7.194725341796875,0.21062194155454633,0.7598011535726488,-0.21670652216523884
1681147288407797200,7.20479736328125,0.13078326568603516,0.640491614189744,-0.1011397860398516
1681147288417869300,7.214869384765625,0.13538462200164794,0.5088666369825602,-0.10006116049028932
1681147288427941400,7.22494140625,0.33090134888291356,0.3794512255836278,-0.15793076379802076
1681147288438013400,7.235013427734375,0.6067793142020702,0.22688282906897364,-0.17425448741558938
1681147288448085500,7.24508544921875,0.8336123858451843,0.03487951713614166,-0.09957100235316901
1681147288458157600,7.255157470703125,1.0686883851766587,-0.150952631881088,-0.013898359634168446
1681147288468229600,7.265229736328125,1.1834312011659145,-0.3465453466080129,0.05378061696104705
1681147288478302500,7.275302490234375,1.1207704545915127,-0.5475974227193743,0.05868924912754446
1681147288488374500,7.28537451171875,1.0166916559576988,-0.6916207667939365,0.020547442259825764
1681147288498446600,7.295446533203125,0.9317863443493842,-0.7875000384896993,-0.10639379757791757
1681147288508518400,7.305518310546875,0.8971510842978954,-0.8352469282444566,-0.2424906229695305
1681147288518590500,7.315590576171875,0.9028361441969871,-0.8169337113101035,-0.3322293826162815
1681147288528662500,7.32566259765625,0.995305169057846,-0.8356114507079124,-0.3177892442556098
1681147288538734300,7.335734375,1.056249759364128,-0.904182882630825,-0.25408487037979066
1681147288548806400,7.345806396484375,1.1552525699079037,-0.9879458192709832,-0.17177406877670437
1681147288558878500,7.35587841796875,1.280458912244439,-1.0605032520901412,-0.09353851725589483
1681147288568951300,7.365951416015625,1.4027929140150546,-1.1513248020049185,-0.04503127412050962
1681147288579023400,7.3760234375,1.4851765981912612,-1.250482876175642,-0.008802424734644591
1681147288589095400,7.386095458984375,1.541457288339734,-1.3751049888834357,0.008961177226621658
1681147288599167200,7.396167236328125,1.46084061383605,-1.5061873836465178,0.04309453390426934
1681147288609239300,7.4062392578125,1.3508125514090061,-1.5113715082861483,0.01875215634088963
1681147288619311400,7.416311279296875,1.1805734736472369,-1.4166183180108665,-0.07328713533319532
1681147288629383400,7.426383544921875,1.0207295331716537,-1.2539195726260541,-0.12436667664200067
1681147288639455500,7.43645556640625,0.9552239185601472,-1.177506779552996,-0.05967537408806383
1681147288649527600,7.446527587890625,1.0098667783737183,-1.1544875768847762,0.04872128774486482
1681147288659599600,7.456599609375,1.1477782885044812,-1.1873362457804382,0.09225625889301299
1681147288669672400,7.46667236328125,1.1717577145069837,-1.3064394489362836,0.09913197161508723
1681147288679744500,7.47674462890625,0.9874556246012449,-1.4398802433937787,0.07485498743811622
1681147288689816600,7.486816650390625,0.5427338352710008,-1.5458835803493856,0.04070544681064784
1681147288699888400,7.496888427734375,0.03601648527681827,-1.48835844309777,-0.03247015443947166
1681147288709960400,7.50696044921875,-0.2938321396827698,-1.2172026109296827,-0.16880418612044304
1681147288720032500,7.517032470703125,-0.5373527267545462,-0.96360910426341,-0.2367584359930828
1681147288730104300,7.527104248046875,-0.9769231246709823,-0.8963879909709095,-0.1611240799466148
1681147288740176400,7.53717626953125,-1.4110107072621583,-0.8272150860235095,-0.05269373503979295
1681147288750248400,7.54724853515625,-1.5867536431372165,-0.6457580833505838,-0.0573157322846353
1681147288760320500,7.557320556640625,-1.4790163219958543,-0.4964373635202646,-0.10253639149740337
1681147288770393300,7.567393310546875,-1.2500544216305016,-0.43778212626017626,-0.023723989936709402
1681147288780465400,7.57746533203125,-0.9730559278488159,-0.42501755642890926,0.13706114037912337
1681147288790537500,7.587537353515625,-0.7554904507666825,-0.3330436216086149,0.2913352083005011
1681147288800609300,7.597609375,-0.7109177340686321,-0.2322691252171993,0.4163429593250155
1681147288810681300,7.607681396484375,-0.8242249642968177,-0.18164368435144423,0.4675883587200194
1681147288820753400,7.61775341796875,-1.0895189917594195,-0.14629633050784469,0.4716439542537555
1681147288830825200,7.6278251953125,-1.394284028866887,-0.11597710702456533,0.49997868938893075
1681147288840897500,7.6378974609375,-1.4587673146933315,-0.02578252990171313,0.6355005279041827
1681147288850969600,7.647969482421875,-1.2798708832234142,0.1995461285278201,0.7916647569537162
1681147288861041700,7.658041748046875,-1.10242348151803,0.5923106438666582,0.9632901745073497
1681147288871114500,7.668114501953125,-1.1114145972251892,0.810723677688837,1.1077940686404704
1681147288881186600,7.6781865234375,-1.273590195518732,0.900363324342668,1.1710190249688923
1681147288891258400,7.68825830078125,-1.7023615515232084,0.9046670128859579,1.0855675507199019
1681147288901330400,7.698330322265625,-2.1597113517582414,0.9205776256579905,0.8289730356067418
1681147288911402500,7.708402587890625,-2.2478198433220387,1.0732631457462907,0.5030867749394848
1681147288921474600,7.718474609375,-2.021284293320775,1.299107206352055,0.2362460294915363
1681147288931546400,7.72854638671875,-1.7296657380342482,1.4327902851328254,0.022124628448672592
1681147288941618400,7.738618408203125,-1.58057407771945,1.4099894013904035,-0.1649801343202591
1681147288951690500,7.7486904296875,-1.6071394285619258,1.3200216918259857,-0.16091807251311838
1681147288961762300,7.75876220703125,-1.5660405254542826,1.2316582025878131,-0.09923625397346914
1681147288971835400,7.76883544921875,-1.5598697278648614,1.0232369128827006,-0.0991091204624623
1681147288981907500,7.778907470703125,-1.3561591731339693,0.9538350214850156,-0.11383775690831244
1681147288991979300,7.788979248046875,-0.7959615773648023,1.0738270632393658,-0.1040224653366953
1681147289002051300,7.79905126953125,-0.06042962652146816,1.1890686225309968,-0.047571460122615095
1681147289012123400,7.809123291015625,0.5142804787248373,1.174792040701583,0.13323306999094783
1681147289022195500,7.819195556640625,0.9679483755767345,1.0618878383163362,0.3680982395833358
1681147289032267300,7.829267333984375,1.3819365884691477,0.9099212801523506,0.47301706923786546
1681147289042339600,7.839339599609375,1.7445926735311745,0.758148125668615,0.4743570491373539
1681147289052411600,7.84941162109375,1.9935931533187627,0.6292711319953203,0.4715117061762139
1681147289062484500,7.859484375,2.0035545753628012,0.512789436449483,0.4036840052926913
1681147289072556500,7.869556640625,1.6568986079871653,0.4561223042666912,0.16213168608658016
1681147289082628600,7.879628662109375,1.1197113009274005,0.4835700639668852,-0.23929500526599584
1681147289092700400,7.889700439453125,0.6499719747185707,0.4965742147076875,-0.6242522078547627
1681147289102772500,7.8997724609375,0.307681216815114,0.49624169481769204,-0.881141760391742
1681147289112844500,7.909844482421875,0.20998539721667767,0.46443113679811354,-0.9198946118298917
1681147289122916400,7.919916259765625,0.30841420726478097,0.45348333406522867,-0.787043526893854
1681147289132988400,7.929988525390625,0.5355991610854863,0.49364407953992484,-0.5735688262566924
1681147289143060500,7.940060546875,0.723045978757739,0.4679665443826467,-0.3414019923701882
1681147289153132500,7.950132568359375,0.8148515712738037,0.359538683693856,-0.1815551292851567
1681147289163204400,7.960204345703125,0.8000660900741815,0.21110190709121524,-0.12053458766583353
1681147289173277400,7.97027734375,0.6173012927383184,0.06322758667692542,-0.1003721992008388
1681147289183349200,7.980349365234375,0.4382739283651113,0.05076455707550048,-0.12718860219493508
1681147289193421300,7.99042138671875,0.2524737088561058,0.06553228342272341,-0.1634936951547861
1681147289203493400,8.000493408203125,0.049529462322592734,0.1271571841433644,-0.21470555760636925
1681147289213565400,8.0105654296875,-0.07322831781804562,0.15854104118347168,-0.282164205981791
1681147289223637200,8.02063720703125,-0.06206921042203903,0.15520539395473895,-0.2812971773562953
1681147289233709300,8.030709228515626,0.09562368949949741,0.09591105507351458,-0.22588895919341592
1681147289243781400,8.040781494140624,0.3942325420647859,-0.023400457070767877,-0.09636325582042336
1681147289253853400,8.050853515625,0.7707359506934881,-0.14998802463263272,0.10412961550559847
1681147289263926500,8.060926513671875,1.074092290046811,-0.2562766082704067,0.2854909027190879
1681147289273998600,8.07099853515625,1.1396464199751615,-0.39149566444680095,0.3126438441911712
